block,trial,image,type,thisN,thisTrialN,thisRepN,response.keys,response.rt,response.duration,trial_loop.thisRepN,trial_loop.thisTrialN,trial_loop.thisN,trial_loop.thisIndex,thisRow.t,notes,Welcome.started,Start_text.started,key_resp.started,Welcome.stopped,key_resp.keys,key_resp.rt,key_resp.duration,trial_ex.started,fixation.started,fixation.stopped,trial_ex.stopped,faces.started,faces_image.started,response.started,serialPort.started,serialPort.stopped,faces.stopped,trial_loop.response.keys,trial_loop.response.rt,trial_loop.response.duration,end_block.started,Endding.started,Endding.stopped,end_block.stopped,pressed_trials,participant,session,date,expName,psychopyVersion,frameRate,expStart,
,,,,,,,,,,,,,,,,0.001820899999984249,0.01386839999941003,0.01386839999941003,2.180913899999723,space,2.1555202999998073,None,,,,,,,,,,,,,,,,,,,969322,002,2025-05-09_17h20.23.493,project,2024.2.4,None,2025-05-09 17h20.30.533445 +0700,
2,1,faces/unknown/unknown_205.jpg,unknown,0,0,0,None,,,0,0,0,0,2.188213899999937,,,,,,,,,2.186485100000027,3.1759556999995766,4.059871899999962,4.015308899999582,4.0479543999999805,4.059871899999962,4.059871899999962,0.03266429999985121,1.0302953000000343,6.015751099999761,None,,,,,,,,969322,002,2025-05-09_17h20.23.493,project,2024.2.4,None,2025-05-09 17h20.30.533445 +0700,
2,2,faces/unknown/unknown_34.jpg,unknown,1,1,0,None,,,0,1,1,1,6.024561700000049,,,,,,,,,6.015930699999444,7.009194399999615,7.995016699999724,7.95951789999981,7.992169699999977,7.995016699999724,7.995016699999724,0.032665699999597564,1.0213009999997666,9.960848400000032,None,,,,,,,,969322,002,2025-05-09_17h20.23.493,project,2024.2.4,None,2025-05-09 17h20.30.533445 +0700,
2,3,faces/unknown/unknown_97.jpg,unknown,2,2,0,None,,,0,2,2,2,9.966859399999521,,,,,,,,,9.961035699999229,10.948570999999902,11.776688599999943,11.740430999999262,11.774004099999729,11.776688599999943,11.776688599999943,0.03358279999974911,1.0261203999998543,13.748526599999423,None,,,,,,,,969322,002,2025-05-09_17h20.23.493,project,2024.2.4,None,2025-05-09 17h20.30.533445 +0700,
2,4,faces/unknown/unknown_181.jpg,unknown,3,3,0,None,,,0,3,3,3,13.758789199999228,,,,,,,,,13.748655299999882,14.73040729999957,15.576401899999837,15.539994699999625,15.573527999999897,15.576401899999837,15.576401899999837,0.03354490000037913,1.0219110000007277,17.54286030000003,None,,,,,,,,969322,002,2025-05-09_17h20.23.493,project,2024.2.4,None,2025-05-09 17h20.30.533445 +0700,
2,5,faces/unknown/unknown_208.jpg,unknown,4,4,0,None,,,0,4,4,4,17.54848999999922,,,,,,,,,17.54301679999935,18.53035060000002,19.33665269999983,19.300812599999517,19.333176399999502,19.33665269999983,19.33665269999983,0.03237540000009176,1.023779399999512,21.309150399999453,None,,,,,,,,969322,002,2025-05-09_17h20.23.493,project,2024.2.4,None,2025-05-09 17h20.30.533445 +0700,
2,6,faces/unknown/unknown_183.jpg,unknown,5,5,0,None,,,0,5,5,5,21.311887199999546,,,,,,,,,21.309326300000066,22.299758299999667,22.994954699999653,22.958435099999406,22.992129700000078,22.994954699999653,22.994954699999653,0.033701299999847834,1.0201447999997981,24.96133269999973,None,,,,,,,,969322,002,2025-05-09_17h20.23.493,project,2024.2.4,None,2025-05-09 17h20.30.533445 +0700,
2,7,faces/unknown/unknown_193.jpg,unknown,6,6,0,None,,,0,6,6,6,24.96647379999922,,,,,,,,,24.961449399999765,25.948080799999843,26.893012999999883,26.858389799999713,26.890038900000036,26.893012999999883,26.893012999999883,0.03167570000005071,1.0177246000002924,28.86353059999965,None,,,,,,,,969322,002,2025-05-09_17h20.23.493,project,2024.2.4,None,2025-05-09 17h20.30.533445 +0700,
2,8,faces/unknown/unknown_18.jpg,unknown,7,7,0,None,,,0,7,7,7,28.87271529999998,,,,,,,,,28.86370749999969,29.85095089999959,30.54803169999923,30.512451399999918,30.54484699999921,30.54803169999923,30.54803169999923,0.03242210000007617,1.0268465999997716,32.51266399999986,None,,,,,,,,969322,002,2025-05-09_17h20.23.493,project,2024.2.4,None,2025-05-09 17h20.30.533445 +0700,
2,9,faces/unknown/unknown_236.jpg,unknown,8,8,0,None,,,0,8,8,8,32.51794359999985,,,,,,,,,32.51285909999933,33.50859289999971,34.240085599999475,34.20293679999941,34.237128400000074,34.240085599999475,34.240085599999475,0.0342157999994015,1.021137799999451,36.20800489999965,None,,,,,,,,969322,002,2025-05-09_17h20.23.493,project,2024.2.4,None,2025-05-09 17h20.30.533445 +0700,
2,10,faces/unknown/unknown_276.jpg,unknown,9,9,0,None,,,0,9,9,9,36.21549849999974,,,,,,,,,36.20817349999925,37.196134699999675,37.97451009999986,37.94008439999925,37.9715385999998,37.97451009999986,37.97451009999986,0.03146270000070217,1.017511099999865,39.942293099999915,None,,,,,,,,969322,002,2025-05-09_17h20.23.493,project,2024.2.4,None,2025-05-09 17h20.30.533445 +0700,
2,11,faces/unknown/unknown_272.jpg,unknown,10,10,0,None,,,0,10,10,10,39.94808529999955,,,,,,,,,39.94251069999973,40.92982789999951,41.64813789999971,41.61494929999935,41.64520809999976,41.64813789999971,41.64813789999971,0.030272700000750774,1.0182407000002058,43.62348209999982,None,,,,,,,,969322,002,2025-05-09_17h20.23.493,project,2024.2.4,None,2025-05-09 17h20.30.533445 +0700,
2,12,faces/known/known_54.jpg,known,11,11,0,space,0.6349547999998322,0.13522180000018125,0,11,11,11,43.626665999999204,,,,,,,,,43.62363069999992,44.614045299999816,45.31116629999997,45.29368499999964,45.30836069999987,45.31116629999997,45.31116629999997,0.014689999999973224,1.0050658000000112,47.299575099999856,space,0.6349547999998322,0.13522180000018125,,,,,,969322,002,2025-05-09_17h20.23.493,project,2024.2.4,None,2025-05-09 17h20.30.533445 +0700,
2,13,faces/unknown/unknown_116.jpg,unknown,12,12,0,None,,,0,12,12,12,47.30868089999967,,,,,,,,,47.29974049999964,48.29054719999931,49.09927219999918,49.06371069999932,49.09613399999944,49.09927219999918,49.09927219999918,0.032437700000627956,1.0268771999999444,51.069737499999974,None,,,,,,,,969322,002,2025-05-09_17h20.23.493,project,2024.2.4,None,2025-05-09 17h20.30.533445 +0700,
2,14,faces/unknown/unknown_148.jpg,unknown,13,13,0,None,,,0,13,13,13,51.075248199999805,,,,,,,,,51.06987329999993,52.05714409999928,52.9619531999997,52.930128299999524,52.95882879999954,52.9619531999997,52.9619531999997,0.028710300000057032,1.01808549999987,54.930489399999715,None,,,,,,,,969322,002,2025-05-09_17h20.23.493,project,2024.2.4,None,2025-05-09 17h20.30.533445 +0700,
2,15,faces/unknown/unknown_231.jpg,unknown,14,14,0,None,,,0,14,14,14,54.93518459999996,,,,,,,,,54.93066099999942,55.926316600000064,56.929178299999876,56.89048439999988,56.92624329999944,56.929178299999876,56.929178299999876,0.03578329999982088,1.0213488999997935,58.89424220000001,None,,,,,,,,969322,002,2025-05-09_17h20.23.493,project,2024.2.4,None,2025-05-09 17h20.30.533445 +0700,
2,16,faces/unknown/unknown_36.jpg,unknown,15,15,0,None,,,0,15,15,15,58.898882699999376,,,,,,,,,58.8944105999999,59.8808827999992,60.8320604999999,60.7941538999994,60.82917889999953,60.8320604999999,60.8320604999999,0.03504909999992378,1.029006699999627,62.79623049999918,None,,,,,,,,969322,002,2025-05-09_17h20.23.493,project,2024.2.4,None,2025-05-09 17h20.30.533445 +0700,
2,17,faces/known/known_9.jpg,known,16,16,0,space,0.6183353000005809,0.14252450000003591,0,16,16,16,62.802186099999744,,,,,,,,,62.79639859999952,63.78378889999931,64.68000699999993,64.64510599999994,64.67696069999965,64.68000699999993,64.68000699999993,0.031877600000370876,1.0178818000003957,66.6505502,space,0.6183353000005809,0.14252450000003591,,,,,,969322,002,2025-05-09_17h20.23.493,project,2024.2.4,None,2025-05-09 17h20.30.533445 +0700,
2,18,faces/known/known_23.jpg,known,17,17,0,space,0.6104271000003791,0.11859819999972387,0,17,17,17,66.65968879999946,,,,,,,,,66.65076059999956,67.64182959999926,68.27943209999921,68.24168529999952,68.27658729999985,68.27943209999921,68.27943209999921,0.03492480000022624,1.0213017000005493,70.24185899999975,space,0.6104271000003791,0.11859819999972387,,,,,,969322,002,2025-05-09_17h20.23.493,project,2024.2.4,None,2025-05-09 17h20.30.533445 +0700,
2,19,faces/unknown/unknown_279.jpg,unknown,18,18,0,None,,,0,18,18,18,70.24445409999953,,,,,,,,,70.24202279999918,71.23237960000006,72.1649054999998,72.12932659999933,72.16164759999992,72.1649054999998,72.1649054999998,0.032347500000469154,1.0182647999999972,74.12940059999983,None,,,,,,,,969322,002,2025-05-09_17h20.23.493,project,2024.2.4,None,2025-05-09 17h20.30.533445 +0700,
2,20,faces/unknown/unknown_297.jpg,unknown,19,19,0,None,,,0,19,19,19,74.13527569999951,,,,,,,,,74.12965669999994,75.12621609999951,76.09987079999974,76.06068460000006,76.09687949999989,76.09987079999974,76.09987079999974,0.03622999999970489,1.0296760999999606,78.06827089999933,None,,,,,,,,969322,002,2025-05-09_17h20.23.493,project,2024.2.4,None,2025-05-09 17h20.30.533445 +0700,
2,21,faces/unknown/unknown_20.jpg,unknown,20,20,0,None,,,0,20,20,20,78.07445969999935,,,,,,,,,78.06849129999955,79.05016859999978,79.98439889999918,79.94791759999953,79.98148349999974,79.98439889999918,79.98439889999918,0.0335958000005121,1.0268486000004486,81.95629989999998,None,,,,,,,,969322,002,2025-05-09_17h20.23.493,project,2024.2.4,None,2025-05-09 17h20.30.533445 +0700,
2,22,faces/unknown/unknown_172.jpg,unknown,21,21,0,None,,,0,21,21,21,81.95906620000005,,,,,,,,,81.95646229999966,82.94105909999962,83.64729279999938,83.61108239999976,83.64464819999921,83.64729279999938,83.64729279999938,0.03357790000063687,1.0210012000006827,85.61351719999948,None,,,,,,,,969322,002,2025-05-09_17h20.23.493,project,2024.2.4,None,2025-05-09 17h20.30.533445 +0700,
2,23,faces/unknown/unknown_225.jpg,unknown,22,22,0,None,,,0,22,22,22,85.62254489999941,,,,,,,,,85.6137149999995,86.60168129999965,87.55443899999955,87.51730569999927,87.55165080000006,87.55443899999955,87.55443899999955,0.034357900000031805,1.0236518000001524,89.52256539999962,None,,,,,,,,969322,002,2025-05-09_17h20.23.493,project,2024.2.4,None,2025-05-09 17h20.30.533445 +0700,
2,24,faces/unknown/unknown_69.jpg,unknown,23,23,0,None,,,0,23,23,23,89.52836549999938,,,,,,,,,89.52270019999924,90.51618139999937,91.52844399999958,91.49278839999988,91.52554659999987,91.52844399999958,91.52844399999958,0.03277989999969577,1.0241557999997895,93.49290199999996,None,,,,,,,,969322,002,2025-05-09_17h20.23.493,project,2024.2.4,None,2025-05-09 17h20.30.533445 +0700,
2,25,faces/unknown/unknown_173.jpg,unknown,24,24,0,None,,,0,24,24,24,93.49837789999947,,,,,,,,,93.49303449999934,94.4905491999998,95.4324846999998,95.39607179999985,95.42978509999921,95.4324846999998,95.4324846999998,0.03373639999972511,1.0262932999994518,97.40192619999925,None,,,,,,,,969322,002,2025-05-09_17h20.23.493,project,2024.2.4,None,2025-05-09 17h20.30.533445 +0700,
2,26,faces/unknown/unknown_278.jpg,unknown,25,25,0,None,,,0,25,25,25,97.41143059999922,,,,,,,,,97.4020845999994,98.39176529999986,99.41108519999943,99.3755756999999,99.40841449999971,99.41108519999943,99.41108519999943,0.03285180000057153,1.0199225000005754,101.37690169999951,None,,,,,,,,969322,002,2025-05-09_17h20.23.493,project,2024.2.4,None,2025-05-09 17h20.30.533445 +0700,
2,27,faces/unknown/unknown_71.jpg,unknown,26,26,0,None,,,0,26,26,26,101.3827652,,,,,,,,,101.37704439999925,102.36487429999943,103.06331189999946,103.02610979999918,103.06045129999984,103.06331189999946,103.06331189999946,0.03435550000085641,1.0239410000003772,105.03271849999965,None,,,,,,,,969322,002,2025-05-09_17h20.23.493,project,2024.2.4,None,2025-05-09 17h20.30.533445 +0700,
2,28,faces/known/known_12.jpg,known,27,27,0,space,0.6111672000006365,0.12829419999980018,0,27,27,27,105.04035859999931,,,,,,,,,105.03285699999924,106.02259359999971,106.89347799999996,106.85983809999925,106.89038869999968,106.89347799999996,106.89347799999996,0.03057249999983469,1.01641010000003,108.86166890000004,space,0.6111672000006365,0.12829419999980018,,,,,,969322,002,2025-05-09_17h20.23.493,project,2024.2.4,None,2025-05-09 17h20.30.533445 +0700,
2,29,faces/unknown/unknown_22.jpg,unknown,28,28,0,None,,,0,28,28,28,108.86772579999979,,,,,,,,,108.86182599999938,109.8495155999999,110.59916929999963,110.55925959999968,110.59661179999966,110.59916929999963,110.59916929999963,0.03737809999984165,1.0234733999996024,112.56459730000006,None,,,,,,,,969322,002,2025-05-09_17h20.23.493,project,2024.2.4,None,2025-05-09 17h20.30.533445 +0700,
2,30,faces/known/known_22.jpg,known,29,29,0,space,0.6184458999996423,0.16828310000073543,0,29,29,29,112.57425299999977,,,,,,,,,112.5647442999998,113.54633680000006,114.31012009999995,114.26835140000003,114.30734759999996,114.31012009999995,114.31012009999995,0.03900900000007823,1.0294808999997258,116.27690719999919,space,0.6184458999996423,0.16828310000073543,,,,,,969322,002,2025-05-09_17h20.23.493,project,2024.2.4,None,2025-05-09 17h20.30.533445 +0700,
2,31,faces/unknown/unknown_49.jpg,unknown,30,30,0,None,,,0,30,30,30,116.27940709999984,,,,,,,,,116.27708549999988,117.26702519999981,118.14153540000007,118.10722489999989,118.1381265,118.14153540000007,118.14153540000007,0.030933500000173808,1.0183953000005204,120.1100678999992,None,,,,,,,,969322,002,2025-05-09_17h20.23.493,project,2024.2.4,None,2025-05-09 17h20.30.533445 +0700,
2,32,faces/unknown/unknown_177.jpg,unknown,31,31,0,None,,,0,31,31,31,120.11549829999967,,,,,,,,,120.11022369999955,121.09790519999933,122.05780139999933,122.02531229999931,122.05502579999938,122.05780139999933,122.05780139999933,0.029737199999544828,1.0182267000000138,124.03138219999983,None,,,,,,,,969322,002,2025-05-09_17h20.23.493,project,2024.2.4,None,2025-05-09 17h20.30.533445 +0700,
2,33,faces/unknown/unknown_218.jpg,unknown,32,32,0,None,,,0,32,32,32,124.03968069999974,,,,,,,,,124.03150399999959,125.01266599999963,125.94642059999933,125.9101643999993,125.94311969999944,125.94642059999933,125.94642059999933,0.03296909999971831,1.0237643999998909,127.9160540999992,None,,,,,,,,969322,002,2025-05-09_17h20.23.493,project,2024.2.4,None,2025-05-09 17h20.30.533445 +0700,
2,34,faces/unknown/unknown_262.jpg,unknown,33,33,0,None,,,0,33,33,33,127.9253291999994,,,,,,,,,127.91628929999933,128.9065813999996,129.8541127999997,129.81902399999944,129.85110089999944,129.8541127999997,129.8541127999997,0.03210040000067238,1.0211388000006991,131.82527699999991,None,,,,,,,,969322,002,2025-05-09_17h20.23.493,project,2024.2.4,None,2025-05-09 17h20.30.533445 +0700,
2,35,faces/unknown/unknown_105.jpg,unknown,34,34,0,None,,,0,34,34,34,131.83077269999922,,,,,,,,,131.82541989999936,132.81238889999986,133.47845479999978,133.44092999999975,133.47541629999978,133.47845479999978,133.47845479999978,0.03450650000013411,1.0204412000002776,135.44329029999972,None,,,,,,,,969322,002,2025-05-09_17h20.23.493,project,2024.2.4,None,2025-05-09 17h20.30.533445 +0700,
2,36,faces/unknown/unknown_179.jpg,unknown,35,35,0,None,,,0,35,35,35,135.44961710000007,,,,,,,,,135.44365199999993,136.43062859999918,137.26889329999995,137.23152619999928,137.26589759999933,137.26889329999995,137.26889329999995,0.03438700000060635,1.027452600000288,139.24036699999942,None,,,,,,,,969322,002,2025-05-09_17h20.23.493,project,2024.2.4,None,2025-05-09 17h20.30.533445 +0700,
2,37,faces/unknown/unknown_294.jpg,unknown,36,36,0,None,,,0,36,36,36,139.24254969999947,,,,,,,,,139.2405579999995,140.22454429999925,141.20740839999962,141.17360000000008,141.20474469999954,141.20740839999962,141.20740839999962,0.031158200000390934,1.0175910000007207,143.17689539999992,None,,,,,,,,969322,002,2025-05-09_17h20.23.493,project,2024.2.4,None,2025-05-09 17h20.30.533445 +0700,
2,38,faces/known/known_5.jpg,known,37,37,0,None,,,0,37,37,37,143.1823136999992,,,,,,,,,143.17703389999951,144.1638542999999,145.0248692999994,144.9824381999997,145.02206619999924,145.0248692999994,145.0248692999994,0.039642300000195974,1.0278607999998712,146.99130629999945,None,,,,,,,,969322,002,2025-05-09_17h20.23.493,project,2024.2.4,None,2025-05-09 17h20.30.533445 +0700,
2,39,faces/unknown/unknown_292.jpg,unknown,38,38,0,None,,,0,38,38,38,146.9942971999999,,,,,,,,,146.9914964999998,147.97594219999974,148.67945379999946,148.64360080000006,148.67584499999975,148.67945379999946,148.67945379999946,0.03225610000026791,1.0232341000000815,150.64865310000005,None,,,,,,,,969322,002,2025-05-09_17h20.23.493,project,2024.2.4,None,2025-05-09 17h20.30.533445 +0700,
2,40,faces/unknown/unknown_23.jpg,unknown,39,39,0,None,,,0,39,39,39,150.6577542999994,,,,,,,,,150.64882619999935,151.63949049999974,152.58701269999983,152.55200879999938,152.58433309999964,152.58701269999983,152.58701269999983,0.03233710000040446,1.0207232000002477,154.55753239999922,None,,,,,,,,969322,002,2025-05-09_17h20.23.493,project,2024.2.4,None,2025-05-09 17h20.30.533445 +0700,
2,41,faces/unknown/unknown_175.jpg,unknown,40,40,0,None,,,0,40,40,40,154.56384290000005,,,,,,,,,154.5577217,155.54522539999925,156.43699099999958,156.40047499999946,156.43438789999982,156.43699099999958,156.43699099999958,0.033937199999854784,1.0243725999998787,158.40941849999945,None,,,,,,,,969322,002,2025-05-09_17h20.23.493,project,2024.2.4,None,2025-05-09 17h20.30.533445 +0700,
2,42,faces/unknown/unknown_210.jpg,unknown,41,41,0,None,,,0,41,41,41,158.41195679999964,,,,,,,,,158.40957139999955,159.39366059999975,160.09211289999985,160.05811279999944,160.0891443999999,160.09211289999985,160.09211289999985,0.031049600000187638,1.0174972000004345,162.06043729999965,None,,,,,,,,969322,002,2025-05-09_17h20.23.493,project,2024.2.4,None,2025-05-09 17h20.30.533445 +0700,
2,43,faces/unknown/unknown_170.jpg,unknown,42,42,0,None,,,0,42,42,42,162.06651369999963,,,,,,,,,162.0605797999997,163.04840289999993,163.69292349999978,163.6579744999999,163.68993809999938,163.69292349999978,163.69292349999978,0.03196209999987332,1.0177591000001485,165.6606038,None,,,,,,,,969322,002,2025-05-09_17h20.23.493,project,2024.2.4,None,2025-05-09 17h20.30.533445 +0700,
2,44,faces/known/known_19.jpg,known,43,43,0,space,0.6015022000001409,0.14495220000026166,0,43,43,43,165.66674799999964,,,,,,,,,165.66083049999997,166.64848110000003,167.31106199999977,167.2760357999996,167.3085244999993,167.31106199999977,167.31106199999977,0.03251099999943108,1.0206373999999414,169.27889549999963,space,0.6015022000001409,0.14495220000026166,,,,,,969322,002,2025-05-09_17h20.23.493,project,2024.2.4,None,2025-05-09 17h20.30.533445 +0700,
2,45,faces/unknown/unknown_129.jpg,unknown,44,44,0,None,,,0,44,44,44,169.28491439999925,,,,,,,,,169.27905939999982,170.2675722999993,170.93303769999966,170.8971916999999,170.92990849999933,170.93303769999966,170.93303769999966,0.032740499999817985,1.0187188999998398,172.90567999999985,None,,,,,,,,969322,002,2025-05-09_17h20.23.493,project,2024.2.4,None,2025-05-09 17h20.30.533445 +0700,
2,46,faces/unknown/unknown_145.jpg,unknown,45,45,0,None,,,0,45,45,45,172.9082295999997,,,,,,,,,172.90604239999993,173.89051389999986,174.7773841999997,174.74245119999978,174.7743329999994,174.7773841999997,174.7773841999997,0.03189380000003439,1.0179118999994898,176.74554739999985,None,,,,,,,,969322,002,2025-05-09_17h20.23.493,project,2024.2.4,None,2025-05-09 17h20.30.533445 +0700,
2,47,faces/unknown/unknown_9.jpg,unknown,46,46,0,None,,,0,46,46,46,176.75140939999983,,,,,,,,,176.74569809999957,177.73294219999934,178.62778389999949,178.59090769999966,178.6248644999996,178.62778389999949,178.62778389999949,0.033970399999816436,1.0263621000003695,180.59378089999973,None,,,,,,,,969322,002,2025-05-09_17h20.23.493,project,2024.2.4,None,2025-05-09 17h20.30.533445 +0700,
2,48,faces/unknown/unknown_86.jpg,unknown,47,47,0,None,,,0,47,47,47,180.59919749999972,,,,,,,,,180.59389949999968,181.58125089999976,182.26649039999938,182.2276310999996,182.2635569999993,182.26649039999938,182.26649039999938,0.035936299999775656,1.0297029000003022,184.2299828999994,None,,,,,,,,969322,002,2025-05-09_17h20.23.493,project,2024.2.4,None,2025-05-09 17h20.30.533445 +0700,
2,49,faces/known/known_50.jpg,known,48,48,0,space,0.5461605999998937,0.14384460000019317,0,48,48,48,184.23894279999968,,,,,,,,,184.2301453,185.21761419999984,186.13510379999934,186.1096465999999,186.13240189999942,186.13510379999934,186.13510379999934,0.02276750000055472,1.0138020000003962,188.11513729999933,space,0.5461605999998937,0.14384460000019317,,,,,,969322,002,2025-05-09_17h20.23.493,project,2024.2.4,None,2025-05-09 17h20.30.533445 +0700,
2,50,faces/unknown/unknown_45.jpg,unknown,49,49,0,None,,,0,49,49,49,188.12382209999942,,,,,,,,,188.1152960999998,189.10248709999996,190.00833059999968,189.9729000999996,190.0053608999997,190.00833059999968,190.00833059999968,0.032483099999808474,1.0202179999996588,191.9751755999996,None,,,,,,,,969322,002,2025-05-09_17h20.23.493,project,2024.2.4,None,2025-05-09 17h20.30.533445 +0700,
2,51,faces/unknown/unknown_298.jpg,unknown,50,50,0,None,,,0,50,50,50,191.98084839999956,,,,,,,,,191.97533509999994,192.9683129999994,193.89371969999956,193.85758159999932,193.89064710000002,193.89371969999956,193.89371969999956,0.03307860000040819,1.020826699999816,195.85786579999967,None,,,,,,,,969322,002,2025-05-09_17h20.23.493,project,2024.2.4,None,2025-05-09 17h20.30.533445 +0700,
2,52,faces/unknown/unknown_247.jpg,unknown,51,51,0,None,,,0,51,51,51,195.86532309999984,,,,,,,,,195.85802969999986,196.84750209999947,197.76838729999963,197.73306779999984,197.76548179999918,197.76838729999963,197.76838729999963,0.03243709999969724,1.0239629999996396,199.74267599999985,None,,,,,,,,969322,002,2025-05-09_17h20.23.493,project,2024.2.4,None,2025-05-09 17h20.30.533445 +0700,
2,53,faces/unknown/unknown_235.jpg,unknown,52,52,0,None,,,0,52,52,52,199.7496554999998,,,,,,,,,199.7428762999998,200.72626499999933,201.71366949999992,201.67561869999918,201.71063859999958,201.71366949999992,201.71366949999992,0.03502860000025976,1.0211448000000019,203.6782463999998,None,,,,,,,,969322,002,2025-05-09_17h20.23.493,project,2024.2.4,None,2025-05-09 17h20.30.533445 +0700,
2,54,faces/unknown/unknown_12.jpg,unknown,53,53,0,None,,,0,53,53,53,203.68393099999957,,,,,,,,,203.6784308999995,204.6653692,205.62550029999966,205.59083479999936,205.62253539999983,205.62550029999966,205.62550029999966,0.031725099999675876,1.018334600000344,207.59315849999984,None,,,,,,,,969322,002,2025-05-09_17h20.23.493,project,2024.2.4,None,2025-05-09 17h20.30.533445 +0700,
2,55,faces/known/known_39.jpg,known,54,54,0,space,0.6843011000000843,0.16076459999931103,0,54,54,54,207.59886109999934,,,,,,,,,207.59331639999982,208.58086099999946,209.36455619999924,209.32379539999965,209.36144069999955,209.36455619999924,209.36455619999924,0.03765949999979057,1.0267659999999523,211.3260395999996,space,0.6843011000000843,0.16076459999931103,,,,,,969322,002,2025-05-09_17h20.23.493,project,2024.2.4,None,2025-05-09 17h20.30.533445 +0700,
2,56,faces/known/known_46.jpg,known,55,55,0,space,0.6135180999999648,0.13643400000000838,0,55,55,55,211.33221819999926,,,,,,,,,211.32620729999962,212.31393219999973,213.2913564999999,213.26623440000003,213.28871209999943,213.2913564999999,213.2913564999999,0.02249149999988731,1.0080705000000307,215.27526949999992,space,0.6135180999999648,0.13643400000000838,,,,,,969322,002,2025-05-09_17h20.23.493,project,2024.2.4,None,2025-05-09 17h20.30.533445 +0700,
2,57,faces/unknown/unknown_53.jpg,unknown,56,56,0,None,,,0,56,56,56,215.2777333999993,,,,,,,,,215.27544510000007,216.25939489999928,216.96856119999939,216.9328485999995,216.96578319999935,216.96856119999939,216.96856119999939,0.03294800000003306,1.026802499999576,218.9408838999998,None,,,,,,,,969322,002,2025-05-09_17h20.23.493,project,2024.2.4,None,2025-05-09 17h20.30.533445 +0700,
2,58,faces/known/known_15.jpg,known,57,57,0,space,0.5479513999998744,0.11898139999993873,0,57,57,57,218.94373129999985,,,,,,,,,218.94117000000006,219.92572519999976,220.82237519999944,220.7809914999998,220.8193928999999,220.82237519999944,220.82237519999944,0.038424899999881745,1.0268524999992223,222.7895284999995,space,0.5479513999998744,0.11898139999993873,,,,,,969322,002,2025-05-09_17h20.23.493,project,2024.2.4,None,2025-05-09 17h20.30.533445 +0700,
2,59,faces/known/known_32.jpg,known,58,58,0,space,0.5507747000001473,0.11140590000013617,0,58,58,58,222.79250090000005,,,,,,,,,222.78973869999936,223.77434829999947,224.57904529999996,224.53175289999945,224.57623599999988,224.57904529999996,224.57904529999996,0.044507599999633385,1.0308023999996294,226.5318671999994,space,0.5507747000001473,0.11140590000013617,,,,,,969322,002,2025-05-09_17h20.23.493,project,2024.2.4,None,2025-05-09 17h20.30.533445 +0700,
2,60,faces/unknown/unknown_207.jpg,unknown,59,59,0,None,,,0,59,59,59,226.5407464,,,,,,,,,226.53205789999993,227.5256821999992,228.1775244999999,228.1418451999998,228.17465379999976,228.1775244999999,228.1775244999999,0.03282949999993434,1.020355099999506,230.14416839999922,None,,,,,,,,969322,002,2025-05-09_17h20.23.493,project,2024.2.4,None,2025-05-09 17h20.30.533445 +0700,
,,,,,,,,,,,,,,,,,,,,,,,,,,,,,,,,,,,,230.1442651999996,230.14967109999998,231.25933749999967,231.14174169999933,,969322,002,2025-05-09_17h20.23.493,project,2024.2.4,None,2025-05-09 17h20.30.533445 +0700,
,,,,,,,,,,,,,,,,,,,,,,,,,,,,,,,,,,,,,,,,"{12, 44, 17, 18, 49, 55, 56, 58, 59, 28, 30}",,,,,,,,
