block,trial,image,type,thisN,thisTrialN,thisRepN,response.keys,response.rt,response.duration,trial_loop.thisRepN,trial_loop.thisTrialN,trial_loop.thisN,trial_loop.thisIndex,thisRow.t,notes,Welcome.started,Start_text.started,key_resp.started,Welcome.stopped,key_resp.keys,key_resp.rt,key_resp.duration,trial_ex.started,fixation.started,fixation.stopped,trial_ex.stopped,faces.started,faces_image.started,response.started,serialPort.started,serialPort.stopped,faces.stopped,trial_loop.response.keys,trial_loop.response.rt,trial_loop.response.duration,faces_image.stopped,response.stopped,end_block.started,Endding.started,Endding.stopped,end_block.stopped,pressed_trials,participant,session,date,expName,psychopyVersion,frameRate,expStart,
,,,,,,,,,,,,,,,,0.0015822000004845904,0.013807600000291131,0.013807600000291131,6.857963800000107,space,6.836981600000399,None,,,,,,,,,,,,,,,,,,,,,101,004,2025-05-09_17h34.04.252,project,2024.2.4,None,2025-05-09 17h34.18.819512 +0700,
4,1,faces/unknown/unknown_107.jpg,unknown,0,0,0,None,,,0,0,0,0,6.864480700000058,,,,,,,,,6.862817500000347,7.848853500000587,8.862847299999885,8.822595399999955,8.852822500000002,8.862847299999885,8.862847299999885,0.030243199999858916,1.0264501999999993,10.825362399999904,None,,,,,,,,,,101,004,2025-05-09_17h34.04.252,project,2024.2.4,None,2025-05-09 17h34.18.819512 +0700,
4,2,faces/known/known_14.jpg,known,1,1,0,space,0.6534037999999782,0.11265270000058081,0,1,1,1,10.831059099999948,,,,,,,,,10.825473100000636,11.812613600000077,12.524937500000306,12.488636099999894,12.5225702000007,12.524937500000306,12.524937500000306,0.03395120000004681,1.0213481000000684,14.488713499999903,space,0.6534037999999782,0.11265270000058081,,,,,,,,101,004,2025-05-09_17h34.04.252,project,2024.2.4,None,2025-05-09 17h34.18.819512 +0700,
4,3,faces/known/known_51.jpg,known,2,2,0,space,0.5963456999998016,0.1357373999999254,0,2,2,2,14.491622700000335,,,,,,,,,14.488863600000514,15.47907860000032,16.110098900000594,16.088787700000466,16.107403900000463,16.110098900000594,16.110098900000594,0.01863560000037978,1.008668999999827,18.091695699999946,space,0.5963456999998016,0.1357373999999254,,,,,,,,101,004,2025-05-09_17h34.04.252,project,2024.2.4,None,2025-05-09 17h34.18.819512 +0700,
4,4,faces/known/known_58.jpg,known,3,3,0,space,0.5422803000001295,0.1689418999994814,0,3,3,3,18.097451500000716,,,,,,,,,18.09182620000047,19.07897150000008,19.9236262000004,19.908419600000343,19.921027700000195,19.9236262000004,19.9236262000004,0.012616600000001199,0.9984756000003472,21.908811600000263,space,0.5422803000001295,0.1689418999994814,21.915267800000038,21.915267800000038,,,,,,101,004,2025-05-09_17h34.04.252,project,2024.2.4,None,2025-05-09 17h34.18.819512 +0700,
4,5,faces/unknown/unknown_111.jpg,unknown,4,4,0,None,,,0,4,4,4,21.915267800000038,,,,,,,,,21.908962200000133,22.897225800000342,23.821447199999966,23.791988900000433,23.818631000000096,23.821447199999966,23.821447199999966,0.026657600000362436,1.0119368000005124,25.794456900000114,None,,,,,,,,,,101,004,2025-05-09_17h34.04.252,project,2024.2.4,None,2025-05-09 17h34.18.819512 +0700,
4,6,faces/known/known_27.jpg,known,5,5,0,space,0.715102900000602,0.12033279999923252,0,5,5,5,25.804425600000286,,,,,,,,,25.79461100000026,26.78210990000025,27.711229800000183,27.680295400000432,27.708774600000652,27.711229800000183,27.711229800000183,0.02848089999952208,1.01679409999997,29.68856290000076,space,0.715102900000602,0.12033279999923252,,,,,,,,101,004,2025-05-09_17h34.04.252,project,2024.2.4,None,2025-05-09 17h34.18.819512 +0700,
4,7,faces/unknown/unknown_1.jpg,unknown,6,6,0,None,,,0,6,6,6,29.69116910000048,,,,,,,,,29.688702899999953,30.673074700000143,31.639271900000494,31.607215100000758,31.6365521000007,31.639271900000494,31.639271900000494,0.029346499999519438,1.0144856999995682,33.61224730000049,None,,,,,,,,,,101,004,2025-05-09_17h34.04.252,project,2024.2.4,None,2025-05-09 17h34.18.819512 +0700,
4,8,faces/unknown/unknown_263.jpg,unknown,7,7,0,None,,,0,7,7,7,33.62106820000008,,,,,,,,,33.61235930000021,34.60380840000016,35.56889279999996,35.537864900000386,35.56599220000044,35.56889279999996,35.56889279999996,0.028130000000601285,1.0171792000001005,37.53986590000022,None,,,,,,,,,,101,004,2025-05-09_17h34.04.252,project,2024.2.4,None,2025-05-09 17h34.18.819512 +0700,
4,9,faces/unknown/unknown_283.jpg,unknown,8,8,0,None,,,0,8,8,8,37.54547249999996,,,,,,,,,37.540012400000705,38.5273614000007,39.187605000000076,39.156084700000065,39.185026900000594,39.187605000000076,39.187605000000076,0.0289346999998088,1.0168039999998655,41.15807750000022,None,,,,,,,,,,101,004,2025-05-09_17h34.04.252,project,2024.2.4,None,2025-05-09 17h34.18.819512 +0700,
4,10,faces/unknown/unknown_299.jpg,unknown,9,9,0,None,,,0,9,9,9,41.16350430000057,,,,,,,,,41.15824950000024,42.145147300000644,42.79389040000024,42.76431219999995,42.791336799999954,42.79389040000024,42.79389040000024,0.027018499999940104,1.017322100000456,44.772401100000025,None,,,,,,,,,,101,004,2025-05-09_17h34.04.252,project,2024.2.4,None,2025-05-09 17h34.18.819512 +0700,
4,11,faces/unknown/unknown_164.jpg,unknown,10,10,0,None,,,0,10,10,10,44.77570090000063,,,,,,,,,44.77250989999993,45.763472399999955,46.43309210000007,46.40576930000043,46.43060770000011,46.43309210000007,46.43309210000007,0.02484950000052777,1.0156655000000683,48.411910499999976,None,,,,,,,,,,101,004,2025-05-09_17h34.04.252,project,2024.2.4,None,2025-05-09 17h34.18.819512 +0700,
4,12,faces/known/known_17.jpg,known,11,11,0,space,0.6563512000002447,0.1279605999998239,0,11,11,11,48.42101320000074,,,,,,,,,48.41203459999997,49.39966170000025,50.13821240000016,50.124142600000596,50.13575160000073,50.13821240000016,50.13821240000016,0.011617899999691872,0.9997566000001825,52.124490799999876,space,0.6563512000002447,0.1279605999998239,52.12660610000057,52.12660610000057,,,,,,101,004,2025-05-09_17h34.04.252,project,2024.2.4,None,2025-05-09 17h34.18.819512 +0700,
4,13,faces/unknown/unknown_256.jpg,unknown,12,12,0,None,,,0,12,12,12,52.12660610000057,,,,,,,,,52.12462030000006,53.11436959999992,54.10215870000047,54.072409600000356,54.09982800000034,54.10215870000047,54.10215870000047,0.027430699999968056,1.0152860999996847,56.078425500000776,None,,,,,,,,,,101,004,2025-05-09_17h34.04.252,project,2024.2.4,None,2025-05-09 17h34.18.819512 +0700,
4,14,faces/unknown/unknown_99.jpg,unknown,13,13,0,None,,,0,13,13,13,56.08769470000061,,,,,,,,,56.07854530000077,57.059915300000284,57.70381070000076,57.67249390000052,57.70141599999988,57.70381070000076,57.70381070000076,0.028945399999429355,1.0148255999993125,59.678267700000106,None,,,,,,,,,,101,004,2025-05-09_17h34.04.252,project,2024.2.4,None,2025-05-09 17h34.18.819512 +0700,
4,15,faces/unknown/unknown_201.jpg,unknown,14,14,0,None,,,0,14,14,14,59.68782090000059,,,,,,,,,59.67840419999993,60.660086100000626,61.31825950000075,61.28834910000023,61.31561310000052,61.31825950000075,61.31825950000075,0.027271200000541285,1.0165674999998373,63.29033250000066,None,,,,,,,,,,101,004,2025-05-09_17h34.04.252,project,2024.2.4,None,2025-05-09 17h34.18.819512 +0700,
4,16,faces/unknown/unknown_212.jpg,unknown,15,15,0,None,,,0,15,15,15,63.296200200000385,,,,,,,,,63.29046280000057,64.27787179999996,65.27327560000049,65.2423787000007,65.27095710000049,65.27327560000049,65.27327560000049,0.02858829999968293,1.0142500000001746,67.24816960000044,None,,,,,,,,,,101,004,2025-05-09_17h34.04.252,project,2024.2.4,None,2025-05-09 17h34.18.819512 +0700,
4,17,faces/unknown/unknown_178.jpg,unknown,16,16,0,None,,,0,16,16,16,67.25711180000053,,,,,,,,,67.2482770000006,68.23799870000039,68.98597450000034,68.95477269999992,68.98332530000062,68.98597450000034,68.98597450000034,0.02856179999980668,1.0182703000000402,70.95685130000038,None,,,,,,,,,,101,004,2025-05-09_17h34.04.252,project,2024.2.4,None,2025-05-09 17h34.18.819512 +0700,
4,18,faces/unknown/unknown_290.jpg,unknown,17,17,0,None,,,0,17,17,17,70.9627801000006,,,,,,,,,70.95697440000004,71.94462050000038,72.78774200000043,72.75690699999996,72.78467760000058,72.78774200000043,72.78774200000043,0.027778700000453682,1.015397699999994,74.75717330000043,None,,,,,,,,,,101,004,2025-05-09_17h34.04.252,project,2024.2.4,None,2025-05-09 17h34.18.819512 +0700,
4,19,faces/known/known_47.jpg,known,18,18,0,space,0.6518779999996696,0.16174299999966024,0,18,18,18,74.76290730000073,,,,,,,,,74.75729020000017,75.7548297000003,76.69416580000052,76.67225159999998,76.69199759999992,76.69416580000052,76.69416580000052,0.019754599999942002,1.0060640000001513,78.67808210000021,space,0.6518779999996696,0.16174299999966024,,,,,,,,101,004,2025-05-09_17h34.04.252,project,2024.2.4,None,2025-05-09 17h34.18.819512 +0700,
4,20,faces/unknown/unknown_293.jpg,unknown,19,19,0,None,,,0,19,19,19,78.68661190000057,,,,,,,,,78.67819380000037,79.65966449999996,80.33579700000064,80.30560050000076,80.33323370000016,80.33579700000064,80.33579700000064,0.027639900000394846,1.0149727999996685,82.30861630000072,None,,,,,,,,,,101,004,2025-05-09_17h34.04.252,project,2024.2.4,None,2025-05-09 17h34.18.819512 +0700,
4,21,faces/unknown/unknown_211.jpg,unknown,20,20,0,None,,,0,20,20,20,82.31403070000033,,,,,,,,,82.30873740000061,83.2962963,84.30265400000008,84.26714750000065,84.30014130000018,84.30265400000008,84.30265400000008,0.03300240000044141,1.022711900000104,86.27206620000015,None,,,,,,,,,,101,004,2025-05-09_17h34.04.252,project,2024.2.4,None,2025-05-09 17h34.18.819512 +0700,
4,22,faces/unknown/unknown_197.jpg,unknown,21,21,0,None,,,0,21,21,21,86.27795100000003,,,,,,,,,86.2721945000003,87.2597082000002,88.27168710000024,88.24040130000049,88.26901540000017,88.27168710000024,88.27168710000024,0.02861529999972845,1.0166950000002544,90.24147240000002,None,,,,,,,,,,101,004,2025-05-09_17h34.04.252,project,2024.2.4,None,2025-05-09 17h34.18.819512 +0700,
4,23,faces/known/known_56.jpg,known,22,22,0,space,0.6095515999995769,0.14361689999986993,0,22,22,22,90.24758900000052,,,,,,,,,90.24160250000023,91.23864950000007,91.91285610000068,91.89614060000076,91.91037640000013,91.91285610000068,91.91285610000068,0.01424570000017411,0.999545699999544,93.89627840000048,space,0.6095515999995769,0.14361689999986993,,,,,,,,101,004,2025-05-09_17h34.04.252,project,2024.2.4,None,2025-05-09 17h34.18.819512 +0700,
4,24,faces/unknown/unknown_228.jpg,unknown,23,23,0,None,,,0,23,23,23,93.90544990000035,,,,,,,,,93.89640800000052,94.88951330000054,95.84555440000076,95.81692180000027,95.84283800000048,95.84555440000076,95.84555440000076,0.02591370000027382,1.0121978999995918,97.82014350000009,None,,,,,,,,,,101,004,2025-05-09_17h34.04.252,project,2024.2.4,None,2025-05-09 17h34.18.819512 +0700,
4,25,faces/unknown/unknown_127.jpg,unknown,24,24,0,None,,,0,24,24,24,97.8228194000003,,,,,,,,,97.82026470000073,98.81112490000032,99.43087259999993,99.39991720000035,99.4280134999999,99.43087259999993,99.43087259999993,0.028101699999751872,1.0133693999996467,101.40801190000002,None,,,,,,,,,,101,004,2025-05-09_17h34.04.252,project,2024.2.4,None,2025-05-09 17h34.18.819512 +0700,
4,26,faces/unknown/unknown_41.jpg,unknown,25,25,0,None,,,0,25,25,25,101.41088990000026,,,,,,,,,101.40815389999989,102.39347570000064,103.29312890000074,103.25514290000046,103.29045470000074,103.29312890000074,103.29312890000074,0.03530560000035621,1.0224892000005639,105.25945210000009,None,,,,,,,,,,101,004,2025-05-09_17h34.04.252,project,2024.2.4,None,2025-05-09 17h34.18.819512 +0700,
4,27,faces/unknown/unknown_88.jpg,unknown,26,26,0,None,,,0,26,26,26,105.26526790000025,,,,,,,,,105.25957710000057,106.24121670000022,106.95084540000062,106.92370380000011,106.94839290000073,106.95084540000062,106.95084540000062,0.024697600000763487,1.0174189000008482,108.92577570000049,None,,,,,,,,,,101,004,2025-05-09_17h34.04.252,project,2024.2.4,None,2025-05-09 17h34.18.819512 +0700,
4,28,faces/unknown/unknown_92.jpg,unknown,27,27,0,None,,,0,27,27,27,108.93161469999995,,,,,,,,,108.92588419999993,109.91353060000074,110.59135630000037,110.56227000000035,110.58884040000066,110.59135630000037,110.59135630000037,0.026585399999930814,1.011837000000014,112.57142480000039,None,,,,,,,,,,101,004,2025-05-09_17h34.04.252,project,2024.2.4,None,2025-05-09 17h34.18.819512 +0700,
4,29,faces/unknown/unknown_277.jpg,unknown,28,28,0,None,,,0,28,28,28,112.57392280000022,,,,,,,,,112.57154170000013,113.55624690000059,114.51869650000026,114.4873705,114.5161891000007,114.51869650000026,114.51869650000026,0.0284708999997747,1.0166741999992155,116.4896002000005,None,,,,,,,,,,101,004,2025-05-09_17h34.04.252,project,2024.2.4,None,2025-05-09 17h34.18.819512 +0700,
4,30,faces/unknown/unknown_270.jpg,unknown,29,29,0,None,,,0,29,29,29,116.49509060000037,,,,,,,,,116.4897189000003,117.47689059999993,118.34526890000052,118.31355110000004,118.34287399999994,118.34526890000052,118.34526890000052,0.029328399999940302,1.0190162999997483,120.31410950000009,None,,,,,,,,,,101,004,2025-05-09_17h34.04.252,project,2024.2.4,None,2025-05-09 17h34.18.819512 +0700,
4,31,faces/unknown/unknown_113.jpg,unknown,30,30,0,None,,,0,30,30,30,120.32325650000075,,,,,,,,,120.31426140000076,121.30746640000052,122.26932600000055,122.2383991000006,122.26647330000014,122.26932600000055,122.26932600000055,0.028084100000342005,1.0187685999999303,124.24067340000056,None,,,,,,,,,,101,004,2025-05-09_17h34.04.252,project,2024.2.4,None,2025-05-09 17h34.18.819512 +0700,
4,32,faces/unknown/unknown_110.jpg,unknown,31,31,0,None,,,0,31,31,31,124.24758950000069,,,,,,,,,124.24078510000072,125.22892320000028,126.2018920999999,126.17214550000062,126.19897550000042,126.2018920999999,126.2018920999999,0.026837099999283964,1.0143992999992406,128.17389230000026,None,,,,,,,,,,101,004,2025-05-09_17h34.04.252,project,2024.2.4,None,2025-05-09 17h34.18.819512 +0700,
4,33,faces/unknown/unknown_169.jpg,unknown,32,32,0,None,,,0,32,32,32,128.17997540000033,,,,,,,,,128.17405550000058,129.16177480000079,130.11369920000016,130.08362140000008,130.11080610000045,130.11369920000016,130.11369920000016,0.027190900000277907,1.0217441000004328,132.08948710000004,None,,,,,,,,,,101,004,2025-05-09_17h34.04.252,project,2024.2.4,None,2025-05-09 17h34.18.819512 +0700,
4,34,faces/known/known_53.jpg,known,33,33,0,space,0.5573077999997622,0.13605189999998402,0,33,33,33,132.0954328000007,,,,,,,,,132.08964790000027,133.07647910000014,133.76497160000054,133.75018610000006,133.76222320000034,133.76497160000054,133.76497160000054,0.01204909999978554,0.9995145000002594,135.75013130000025,space,0.5573077999997622,0.13605189999998402,135.75536510000074,135.75536510000074,,,,,,101,004,2025-05-09_17h34.04.252,project,2024.2.4,None,2025-05-09 17h34.18.819512 +0700,
4,35,faces/unknown/unknown_5.jpg,unknown,34,34,0,None,,,0,34,34,34,135.75536510000074,,,,,,,,,135.75028100000054,136.74398890000066,137.64934620000076,137.61673240000073,137.64666230000057,137.64934620000076,137.64934620000076,0.029933700000583485,1.0207350000000588,139.62228800000048,None,,,,,,,,,,101,004,2025-05-09_17h34.04.252,project,2024.2.4,None,2025-05-09 17h34.18.819512 +0700,
4,36,faces/unknown/unknown_267.jpg,unknown,35,35,0,None,,,0,35,35,35,139.6288338000004,,,,,,,,,139.62241110000014,140.61001840000063,141.2367462000002,141.20783070000016,141.23399270000027,141.2367462000002,141.2367462000002,0.026165100000071106,1.0142877999996927,143.20996920000016,None,,,,,,,,,,101,004,2025-05-09_17h34.04.252,project,2024.2.4,None,2025-05-09 17h34.18.819512 +0700,
4,37,faces/unknown/unknown_163.jpg,unknown,36,36,0,None,,,0,36,36,36,143.21574580000015,,,,,,,,,143.21008430000074,144.19748160000017,145.19001040000057,145.15832540000065,145.1875955000005,145.19001040000057,145.19001040000057,0.029282100000273203,1.015331700000388,147.16159530000004,None,,,,,,,,,,101,004,2025-05-09_17h34.04.252,project,2024.2.4,None,2025-05-09 17h34.18.819512 +0700,
4,38,faces/unknown/unknown_295.jpg,unknown,37,37,0,None,,,0,37,37,37,147.17057160000059,,,,,,,,,147.1617180000003,148.14919220000047,148.9186210000007,148.88900710000053,148.91605120000077,148.9186210000007,148.9186210000007,0.02705249999962689,1.0144892999996955,150.89457180000045,None,,,,,,,,,,101,004,2025-05-09_17h34.04.252,project,2024.2.4,None,2025-05-09 17h34.18.819512 +0700,
4,39,faces/unknown/unknown_182.jpg,unknown,38,38,0,None,,,0,38,38,38,150.9037742999999,,,,,,,,,150.89470130000063,151.88192250000066,152.76192460000038,152.73146440000073,152.75916140000027,152.76192460000038,152.76192460000038,0.02770509999936621,1.0176581999994596,154.7407559000003,None,,,,,,,,,,101,004,2025-05-09_17h34.04.252,project,2024.2.4,None,2025-05-09 17h34.18.819512 +0700,
4,40,faces/unknown/unknown_134.jpg,unknown,39,39,0,None,,,0,39,39,39,154.74311810000017,,,,,,,,,154.74088810000012,155.7246223000002,156.54209489999994,156.5131433000006,156.53947450000032,156.54209489999994,156.54209489999994,0.026337299999795505,1.0119316999998773,158.52209290000064,None,,,,,,,,,,101,004,2025-05-09_17h34.04.252,project,2024.2.4,None,2025-05-09 17h34.18.819512 +0700,
4,41,faces/unknown/unknown_35.jpg,unknown,40,40,0,None,,,0,40,40,40,158.52472940000007,,,,,,,,,158.52222880000045,159.51207180000074,160.40476040000067,160.3738196000004,160.4022930000001,160.40476040000067,160.40476040000067,0.028479100000367907,1.0148049999997966,162.37942120000025,None,,,,,,,,,,101,004,2025-05-09_17h34.04.252,project,2024.2.4,None,2025-05-09 17h34.18.819512 +0700,
4,42,faces/unknown/unknown_48.jpg,unknown,41,41,0,None,,,0,41,41,41,162.38839820000067,,,,,,,,,162.3795897,163.3709404000001,164.17135440000038,164.13964530000067,164.16827740000008,164.17135440000038,164.17135440000038,0.02864640000007057,1.0148639999997613,166.14270770000076,None,,,,,,,,,,101,004,2025-05-09_17h34.04.252,project,2024.2.4,None,2025-05-09 17h34.18.819512 +0700,
4,43,faces/unknown/unknown_90.jpg,unknown,42,42,0,None,,,0,42,42,42,166.14851520000047,,,,,,,,,166.14281930000016,167.13016900000002,168.0042395999999,167.97339960000045,168.00196760000017,168.0042395999999,168.0042395999999,0.028579499999977998,1.0146230000000287,169.97862930000065,None,,,,,,,,,,101,004,2025-05-09_17h34.04.252,project,2024.2.4,None,2025-05-09 17h34.18.819512 +0700,
4,44,faces/unknown/unknown_155.jpg,unknown,43,43,0,None,,,0,43,43,43,169.98754940000072,,,,,,,,,169.97873640000034,170.96073630000046,171.58935830000064,171.55784940000012,171.58673590000035,171.58935830000064,171.58935830000064,0.028896899999381276,1.0147956999999224,173.56069660000048,None,,,,,,,,,,101,004,2025-05-09_17h34.04.252,project,2024.2.4,None,2025-05-09 17h34.18.819512 +0700,
4,45,faces/unknown/unknown_30.jpg,unknown,44,44,0,None,,,0,44,44,44,173.56641190000028,,,,,,,,,173.56080780000048,174.54812680000032,175.28518500000064,175.25447770000028,175.28258040000037,175.28518500000064,175.28518500000064,0.02811279999968974,1.0176198999997723,177.2546110000003,None,,,,,,,,,,101,004,2025-05-09_17h34.04.252,project,2024.2.4,None,2025-05-09 17h34.18.819512 +0700,
4,46,faces/known/known_11.jpg,known,45,45,0,space,0.6362421000003451,0.11229089999960706,0,45,45,45,177.2574035000007,,,,,,,,,177.25472770000033,178.24499130000004,178.9819864000001,178.9483527000002,178.97928630000024,178.9819864000001,178.9819864000001,0.030944199999794364,1.0180860999998913,180.95731479999995,space,0.6362421000003451,0.11229089999960706,,,,,,,,101,004,2025-05-09_17h34.04.252,project,2024.2.4,None,2025-05-09 17h34.18.819512 +0700,
4,47,faces/unknown/unknown_152.jpg,unknown,46,46,0,None,,,0,46,46,46,180.9602332000004,,,,,,,,,180.95743930000026,181.9418994000007,182.60221700000056,182.57280150000042,182.5997941000005,182.60221700000056,182.60221700000056,0.027006700000129058,1.0154474000000846,184.57846470000004,None,,,,,,,,,,101,004,2025-05-09_17h34.04.252,project,2024.2.4,None,2025-05-09 17h34.18.819512 +0700,
4,48,faces/unknown/unknown_199.jpg,unknown,47,47,0,None,,,0,47,47,47,184.58725060000052,,,,,,,,,184.57857310000054,185.5600811000004,186.38125390000005,186.34903250000025,186.3784970000006,186.38125390000005,186.38125390000005,0.029461299999638868,1.0174608999996053,188.3570883000002,None,,,,,,,,,,101,004,2025-05-09_17h34.04.252,project,2024.2.4,None,2025-05-09 17h34.18.819512 +0700,
4,49,faces/known/known_42.jpg,known,48,48,0,space,0.6794282999999268,0.08791060000021389,0,48,48,48,188.3600733000003,,,,,,,,,188.35720650000076,189.34175330000016,190.07461469999998,190.0546559000004,190.0719779000001,190.07461469999998,190.07461469999998,0.017329700000118464,1.0026072999999087,192.05743040000016,space,0.6794282999999268,0.08791060000021389,,,,,,,,101,004,2025-05-09_17h34.04.252,project,2024.2.4,None,2025-05-09 17h34.18.819512 +0700,
4,50,faces/known/known_1.jpg,known,49,49,0,space,0.6228731999999582,0.14462550000007468,0,49,49,49,192.06332830000065,,,,,,,,,192.0575515999999,193.04512729999988,193.87518189999992,193.84551060000013,193.87261829999989,193.87518189999992,193.87518189999992,0.02711540000018431,1.0174824999994598,195.8545490000006,space,0.6228731999999582,0.14462550000007468,,,,,,,,101,004,2025-05-09_17h34.04.252,project,2024.2.4,None,2025-05-09 17h34.18.819512 +0700,
4,51,faces/unknown/unknown_136.jpg,unknown,50,50,0,None,,,0,50,50,50,195.8572195000006,,,,,,,,,195.85468089999995,196.8386846000003,197.65434860000005,197.62398200000007,197.65188840000064,197.65434860000005,197.65434860000005,0.027930000000196742,1.0176484000003256,199.62684750000062,None,,,,,,,,,,101,004,2025-05-09_17h34.04.252,project,2024.2.4,None,2025-05-09 17h34.18.819512 +0700,
4,52,faces/unknown/unknown_61.jpg,unknown,51,51,0,None,,,0,51,51,51,199.63246419999996,,,,,,,,,199.6269701000001,200.6142516,201.5024813,201.47262150000006,201.49988910000047,201.5024813,201.5024813,0.027277399999547924,1.0174221999996007,203.47512350000034,None,,,,,,,,,,101,004,2025-05-09_17h34.04.252,project,2024.2.4,None,2025-05-09 17h34.18.819512 +0700,
4,53,faces/unknown/unknown_196.jpg,unknown,52,52,0,None,,,0,52,52,52,203.48097320000034,,,,,,,,,203.47523580000052,204.4630016000001,205.36153689999992,205.32960710000043,205.3585364999999,205.36153689999992,205.36153689999992,0.028927899999871443,1.0184724999999162,207.33873440000025,None,,,,,,,,,,101,004,2025-05-09_17h34.04.252,project,2024.2.4,None,2025-05-09 17h34.18.819512 +0700,
4,54,faces/unknown/unknown_67.jpg,unknown,53,53,0,None,,,0,53,53,53,207.34166300000015,,,,,,,,,207.3388498000004,208.32301020000068,209.14877690000048,209.12007260000064,209.14589560000059,209.14877690000048,209.14877690000048,0.025828600000750157,1.0178233000006003,211.1233474999999,None,,,,,,,,,,101,004,2025-05-09_17h34.04.252,project,2024.2.4,None,2025-05-09 17h34.18.819512 +0700,
4,55,faces/unknown/unknown_77.jpg,unknown,54,54,0,None,,,0,54,54,54,211.12904450000042,,,,,,,,,211.12346590000016,212.11144990000048,212.9017956000007,212.87208210000063,212.89919850000024,212.9017956000007,212.9017956000007,0.027126699999826087,1.0175364999995509,214.87460890000057,None,,,,,,,,,,101,004,2025-05-09_17h34.04.252,project,2024.2.4,None,2025-05-09 17h34.18.819512 +0700,
4,56,faces/unknown/unknown_27.jpg,unknown,55,55,0,None,,,0,55,55,55,214.88051340000038,,,,,,,,,214.87473780000073,215.86247860000003,216.48893580000004,216.45706560000053,216.4862965000002,216.48893580000004,216.48893580000004,0.029240099999697122,1.0150059999996301,218.4571507999999,None,,,,,,,,,,101,004,2025-05-09_17h34.04.252,project,2024.2.4,None,2025-05-09 17h34.18.819512 +0700,
4,57,faces/known/known_41.jpg,known,56,56,0,space,0.6293745000002673,0.1346992999997383,0,56,56,56,218.46231669999997,,,,,,,,,218.45729010000014,219.45313460000034,220.27859270000044,220.25697440000022,220.27596470000026,220.27859270000044,220.27859270000044,0.019000100000084785,1.0062355000000025,222.26266750000013,space,0.6293745000002673,0.1346992999997383,,,,,,,,101,004,2025-05-09_17h34.04.252,project,2024.2.4,None,2025-05-09 17h34.18.819512 +0700,
4,58,faces/unknown/unknown_153.jpg,unknown,57,57,0,None,,,0,57,57,57,222.27074240000002,,,,,,,,,222.26279479999994,223.2440929000004,224.18861640000068,224.15684640000018,224.18618920000063,224.18861640000068,224.18861640000068,0.029350099999646773,1.0176364999997531,226.15953620000073,None,,,,,,,,,,101,004,2025-05-09_17h34.04.252,project,2024.2.4,None,2025-05-09 17h34.18.819512 +0700,
4,59,faces/unknown/unknown_81.jpg,unknown,58,58,0,None,,,0,58,58,58,226.16539629999988,,,,,,,,,226.15965550000055,227.1472162,227.90477439999995,227.87226360000022,227.90207100000043,227.90477439999995,227.90477439999995,0.029815299999427225,1.016936799999712,229.87477710000076,None,,,,,,,,,,101,004,2025-05-09_17h34.04.252,project,2024.2.4,None,2025-05-09 17h34.18.819512 +0700,
4,60,faces/unknown/unknown_46.jpg,unknown,59,59,0,None,,,0,59,59,59,229.88040940000064,,,,,,,,,229.8749260000004,230.86227260000032,231.7007747000007,231.67182260000027,231.69832380000025,231.7007747000007,231.7007747000007,0.026510000000598666,1.0177050000002055,233.6742930999999,None,,,,,,,,,,101,004,2025-05-09_17h34.04.252,project,2024.2.4,None,2025-05-09 17h34.18.819512 +0700,
,,,,,,,,,,,,,,,,,,,,,,,,,,,,,,,,,,,,,,233.67436799999996,233.68036110000048,234.7813802999999,234.6713096000003,,101,004,2025-05-09_17h34.04.252,project,2024.2.4,None,2025-05-09 17h34.18.819512 +0700,
,,,,,,,,,,,,,,,,,,,,,,,,,,,,,,,,,,,,,,,,,,"{2, 3, 4, 34, 6, 12, 46, 49, 50, 19, 23, 57}",,,,,,,,
