block,trial,image,type,thisN,thisTrialN,thisRepN,response.keys,response.rt,response.duration,trial_loop.thisRepN,trial_loop.thisTrialN,trial_loop.thisN,trial_loop.thisIndex,thisRow.t,notes,Welcome.started,Start_text.started,key_resp.started,Welcome.stopped,key_resp.keys,key_resp.rt,key_resp.duration,trial_ex.started,fixation.started,fixation.stopped,trial_ex.stopped,faces.started,faces_image.started,response.started,serialPort.started,serialPort.stopped,faces.stopped,trial_loop.response.keys,trial_loop.response.rt,trial_loop.response.duration,end_block.started,Endding.started,Endding.stopped,end_block.stopped,pressed_trials,participant,session,date,expName,psychopyVersion,frameRate,expStart,
,,,,,,,,,,,,,,,,0.15255309999974997,0.15778560000035213,0.15778560000035213,2.542441300000064,space,2.3773120999994717,None,,,,,,,,,,,,,,,,,,,102,003,2025-05-17_14h40.57.329,project,2024.2.4,231.69064665074265,2025-05-17 14h41.07.152874 +0700,
3,1,faces/unknown/unknown_286.jpg,unknown,0,0,0,None,,,0,0,0,0,2.550788499999726,,,,,,,,,2.5485687000000325,3.536280799999986,4.225433200000225,4.168727999999646,4.218001399999594,4.225433200000225,4.225433200000225,0.04929600000014034,1.042935899999975,6.170082399999956,None,,,,,,,,102,003,2025-05-17_14h40.57.329,project,2024.2.4,231.69064665074265,2025-05-17 14h41.07.152874 +0700,
3,2,faces/known/known_11.jpg,known,1,1,0,space,0.9722619999993185,0.20060280000052444,0,1,1,1,6.17417850000038,,,,,,,,,6.1703238999998575,7.157446500000333,8.082874599999741,8.021262600000227,8.079433599999902,8.082874599999741,8.082874599999741,0.058170300000710995,1.0448089999999866,10.024548000000323,space,0.9722619999993185,0.20060280000052444,,,,,,102,003,2025-05-17_14h40.57.329,project,2024.2.4,231.69064665074265,2025-05-17 14h41.07.152874 +0700,
3,3,faces/known/known_92.jpg,known,2,2,0,space,0.8503631000003224,0.22356330000002345,0,2,2,2,10.028599999999642,,,,,,,,,10.024788800000351,11.007738899999822,11.933000099999845,11.906910800000333,11.925987100000384,11.933000099999845,11.933000099999845,0.019093599999905564,1.0157314000007318,13.907620099999804,space,0.8503631000003224,0.22356330000002345,,,,,,102,003,2025-05-17_14h40.57.329,project,2024.2.4,231.69064665074265,2025-05-17 14h41.07.152874 +0700,
3,4,faces/known/known_120.jpg,known,3,3,0,space,0.8485499999997046,0.17592549999972107,0,3,3,3,13.911761299999853,,,,,,,,,13.907860899999832,14.894936200000302,15.838554699999804,15.80410000000029,15.835060299999896,15.838554699999804,15.838554699999804,0.030969800000093528,1.0201038999994125,17.807533299999704,space,0.8485499999997046,0.17592549999972107,,,,,,102,003,2025-05-17_14h40.57.329,project,2024.2.4,231.69064665074265,2025-05-17 14h41.07.152874 +0700,
3,5,faces/unknown/unknown_90.jpg,unknown,4,4,0,None,,,0,4,4,4,17.81160759999966,,,,,,,,,17.807760200000303,18.79100610000023,19.438102699999945,19.391473300000143,19.43134949999967,19.438102699999945,19.438102699999945,0.039879399999335874,1.0309551999998803,21.391853199999787,None,,,,,,,,102,003,2025-05-17_14h40.57.329,project,2024.2.4,231.69064665074265,2025-05-17 14h41.07.152874 +0700,
3,6,faces/unknown/unknown_34.jpg,unknown,5,5,0,None,,,0,5,5,5,21.394977500000095,,,,,,,,,21.39210869999988,22.37857989999975,23.196975199999542,23.141850899999554,23.193789199999628,23.196975199999542,23.196975199999542,0.0519479999993564,1.0407961000000796,25.145072600000276,None,,,,,,,,102,003,2025-05-17_14h40.57.329,project,2024.2.4,231.69064665074265,2025-05-17 14h41.07.152874 +0700,
3,7,faces/unknown/unknown_9.jpg,unknown,6,6,0,None,,,0,6,6,6,25.14918250000028,,,,,,,,,25.14528220000011,26.128920000000107,27.10518669999965,27.05754259999958,27.100582699999904,27.10518669999965,27.10518669999965,0.04305289999956585,1.0314149999994697,29.057795099999566,None,,,,,,,,102,003,2025-05-17_14h40.57.329,project,2024.2.4,231.69064665074265,2025-05-17 14h41.07.152874 +0700,
3,8,faces/unknown/unknown_211.jpg,unknown,7,7,0,None,,,0,7,7,7,29.061960699999872,,,,,,,,,29.058036399999764,30.04493889999958,30.921052300000156,30.862433799999963,30.917472899999666,30.921052300000156,30.921052300000156,0.05506470000000263,1.0449207999999999,32.86619950000022,None,,,,,,,,102,003,2025-05-17_14h40.57.329,project,2024.2.4,231.69064665074265,2025-05-17 14h41.07.152874 +0700,
3,9,faces/known/known_58.jpg,known,8,8,0,space,0.9164816000002247,0.1832420999999158,0,8,8,8,32.870225599999685,,,,,,,,,32.86640710000029,33.84907039999962,34.66665449999982,34.636501599999974,34.65922599999976,34.66665449999982,34.66665449999982,0.02274079999915557,1.0193744999996852,36.636931099999856,space,0.9164816000002247,0.1832420999999158,,,,,,102,003,2025-05-17_14h40.57.329,project,2024.2.4,231.69064665074265,2025-05-17 14h41.07.152874 +0700,
3,10,faces/unknown/unknown_185.jpg,unknown,9,9,0,None,,,0,9,9,9,36.64096299999983,,,,,,,,,36.63716899999963,37.62424809999993,38.44855860000007,38.39131840000027,38.44548730000042,38.44855860000007,38.44855860000007,0.054175600000235136,1.0412750000004962,40.39521659999991,None,,,,,,,,102,003,2025-05-17_14h40.57.329,project,2024.2.4,231.69064665074265,2025-05-17 14h41.07.152874 +0700,
3,11,faces/known/known_10.jpg,known,10,10,0,space,0.9233305999996446,0.20818880000024365,0,10,10,10,40.399259699999675,,,,,,,,,40.39546229999996,41.37827500000003,42.18688099999963,42.129404199999954,42.1835772000004,42.18688099999963,42.18688099999963,0.054179499999918335,1.0471747999999934,44.132677100000365,space,0.9233305999996446,0.20818880000024365,,,,,,102,003,2025-05-17_14h40.57.329,project,2024.2.4,231.69064665074265,2025-05-17 14h41.07.152874 +0700,
3,12,faces/unknown/unknown_243.jpg,unknown,11,11,0,None,,,0,11,11,11,44.13682809999955,,,,,,,,,44.1329625999997,45.12040419999994,46.07620270000007,46.02494990000014,46.07232180000028,46.07620270000007,46.07620270000007,0.047324899999694026,1.036633400000028,48.0296115000001,None,,,,,,,,102,003,2025-05-17_14h40.57.329,project,2024.2.4,231.69064665074265,2025-05-17 14h41.07.152874 +0700,
3,13,faces/unknown/unknown_257.jpg,unknown,12,12,0,None,,,0,12,12,12,48.032842900000105,,,,,,,,,48.02973329999986,49.01165690000016,49.892471000000114,49.83991849999984,49.88600409999981,49.892471000000114,49.892471000000114,0.04609530000016093,1.0365779000003386,51.84098759999961,None,,,,,,,,102,003,2025-05-17_14h40.57.329,project,2024.2.4,231.69064665074265,2025-05-17 14h41.07.152874 +0700,
3,14,faces/known/known_136.jpg,known,13,13,0,space,1.1547085999991396,0.1841790000007677,0,13,13,13,51.8448828999999,,,,,,,,,51.841219199999614,52.82860030000029,53.483385100000305,53.450026999999864,53.48009490000004,53.483385100000305,53.483385100000305,0.030083700000432145,1.0159473000003345,55.45345759999964,space,1.1547085999991396,0.1841790000007677,,,,,,102,003,2025-05-17_14h40.57.329,project,2024.2.4,231.69064665074265,2025-05-17 14h41.07.152874 +0700,
3,15,faces/known/known_15.jpg,known,14,14,0,space,0.7045975000000908,0.2081662000000506,0,14,14,14,55.45739349999985,,,,,,,,,55.453664599999684,56.43683630000032,57.1974739999996,57.1420162000004,57.19321459999992,57.1974739999996,57.1974739999996,0.05119919999924605,1.0387510999998995,59.14516470000035,space,0.7045975000000908,0.2081662000000506,,,,,,102,003,2025-05-17_14h40.57.329,project,2024.2.4,231.69064665074265,2025-05-17 14h41.07.152874 +0700,
3,16,faces/known/known_80.jpg,known,15,15,0,space,0.665219800000159,0.19249390000004496,0,15,15,15,59.149084499999844,,,,,,,,,59.14542939999956,60.1324125000001,61.01309820000006,60.97944960000041,61.009590800000296,61.01309820000006,61.01309820000006,0.030146899999635934,1.0160341999999218,62.982525800000076,space,0.665219800000159,0.19249390000004496,,,,,,102,003,2025-05-17_14h40.57.329,project,2024.2.4,231.69064665074265,2025-05-17 14h41.07.152874 +0700,
3,17,faces/known/known_51.jpg,known,16,16,0,space,0.5575948000005155,0.2003374999994776,0,16,16,16,62.98660459999974,,,,,,,,,62.9826579999999,63.96585109999978,64.80058019999979,64.77389729999959,64.79377449999993,64.80058019999979,64.80058019999979,0.019889800000782998,1.0143659000004845,66.77448420000019,space,0.5575948000005155,0.2003374999994776,,,,,,102,003,2025-05-17_14h40.57.329,project,2024.2.4,231.69064665074265,2025-05-17 14h41.07.152874 +0700,
3,18,faces/known/known_103.jpg,known,17,17,0,space,0.8929059000001871,0.19958169999972597,0,17,17,17,66.7784744999999,,,,,,,,,66.77473709999958,67.76179789999969,68.8184997999997,68.74582809999993,68.8154869,68.8184997999997,68.8184997999997,0.06966670000019803,1.057633600000372,70.74918969999999,space,0.8929059000001871,0.19958169999972597,,,,,,102,003,2025-05-17_14h40.57.329,project,2024.2.4,231.69064665074265,2025-05-17 14h41.07.152874 +0700,
3,19,faces/known/known_104.jpg,known,18,18,0,space,0.5522393000001102,0.18390009999984613,0,18,18,18,70.75329599999986,,,,,,,,,70.74939030000041,71.73299440000028,72.46240109999962,72.41011299999991,72.45569830000022,72.46240109999962,72.46240109999962,0.045590000000629516,1.0385179000004428,74.4152425000002,space,0.5522393000001102,0.18390009999984613,,,,,,102,003,2025-05-17_14h40.57.329,project,2024.2.4,231.69064665074265,2025-05-17 14h41.07.152874 +0700,
3,20,faces/unknown/unknown_276.jpg,unknown,19,19,0,None,,,0,19,19,19,74.42287250000027,,,,,,,,,74.41536670000005,75.40176859999974,76.1624738999999,76.11866790000022,76.1574397000004,76.1624738999999,76.1624738999999,0.03878679999979795,1.0264491999996608,78.12039490000006,None,,,,,,,,102,003,2025-05-17_14h40.57.329,project,2024.2.4,231.69064665074265,2025-05-17 14h41.07.152874 +0700,
3,21,faces/known/known_144.jpg,known,20,20,0,space,1.0269724999998289,0.20824330000050395,0,20,20,20,78.12391250000019,,,,,,,,,78.12053240000023,79.10790590000033,79.99548190000041,79.94607300000007,79.99220270000023,79.99548190000041,79.99548190000041,0.04613489999974263,1.0324044999997568,81.9494593999998,space,1.0269724999998289,0.20824330000050395,,,,,,102,003,2025-05-17_14h40.57.329,project,2024.2.4,231.69064665074265,2025-05-17 14h41.07.152874 +0700,
3,22,faces/known/known_14.jpg,known,21,21,0,space,1.1950310999991416,0.18521550000059506,0,21,21,21,81.95354640000005,,,,,,,,,81.94967900000029,82.93679520000023,83.65163870000015,83.59648000000016,83.64487949999966,83.65163870000015,83.65163870000015,0.04841519999990851,1.0384482999998,85.59912950000034,space,1.1950310999991416,0.18521550000059506,,,,,,102,003,2025-05-17_14h40.57.329,project,2024.2.4,231.69064665074265,2025-05-17 14h41.07.152874 +0700,
3,23,faces/known/known_18.jpg,known,22,22,0,space,0.9261412000005294,0.19227679999949032,0,22,22,22,85.60337410000011,,,,,,,,,85.59926710000036,86.58682229999977,87.41606919999958,87.35836899999958,87.4138667999996,87.41606919999958,87.41606919999958,0.055512500000077125,1.0409856000005675,89.36188459999994,space,0.9261412000005294,0.19227679999949032,,,,,,102,003,2025-05-17_14h40.57.329,project,2024.2.4,231.69064665074265,2025-05-17 14h41.07.152874 +0700,
3,24,faces/unknown/unknown_58.jpg,unknown,23,23,0,None,,,0,23,23,23,89.36596490000011,,,,,,,,,89.36213260000022,90.34503190000032,91.03441649999968,90.98755679999977,91.03120539999964,91.03441649999968,91.03441649999968,0.04361179999978049,1.0324359999995067,92.99070690000008,None,,,,,,,,102,003,2025-05-17_14h40.57.329,project,2024.2.4,231.69064665074265,2025-05-17 14h41.07.152874 +0700,
3,25,faces/unknown/unknown_169.jpg,unknown,24,24,0,None,,,0,24,24,24,92.99483520000013,,,,,,,,,92.99082540000018,93.97411730000022,94.8369574999997,94.79019210000024,94.83019200000035,94.8369574999997,94.8369574999997,0.04001059999973222,1.0301699000001463,96.79106750000028,None,,,,,,,,102,003,2025-05-17_14h40.57.329,project,2024.2.4,231.69064665074265,2025-05-17 14h41.07.152874 +0700,
3,26,faces/known/known_143.jpg,known,25,25,0,space,0.8417554999996355,0.20872520000011718,0,25,25,25,96.7950837999997,,,,,,,,,96.79147889999967,97.77835940000023,98.65223220000007,98.58336080000026,98.64909970000008,98.65223220000007,98.65223220000007,0.06574989999990066,1.053300699999454,100.5870101999999,space,0.8417554999996355,0.20872520000011718,,,,,,102,003,2025-05-17_14h40.57.329,project,2024.2.4,231.69064665074265,2025-05-17 14h41.07.152874 +0700,
3,27,faces/known/known_67.jpg,known,26,26,0,space,0.8609266000003117,0.17608190000009927,0,26,26,26,100.5909388,,,,,,,,,100.58746679999967,101.57011609999972,102.24977089999993,102.22305990000041,102.24317350000001,102.24977089999993,102.24977089999993,0.020134000000325614,1.0093675999996776,104.22427160000007,space,0.8609266000003117,0.17608190000009927,,,,,,102,003,2025-05-17_14h40.57.329,project,2024.2.4,231.69064665074265,2025-05-17 14h41.07.152874 +0700,
3,28,faces/unknown/unknown_252.jpg,unknown,27,27,0,None,,,0,27,27,27,104.22840030000043,,,,,,,,,104.22448379999969,105.21137199999976,106.22572630000013,106.1584227000003,106.22266479999962,106.22572630000013,106.22572630000013,0.06424330000027112,1.053378900000098,108.16148379999959,None,,,,,,,,102,003,2025-05-17_14h40.57.329,project,2024.2.4,231.69064665074265,2025-05-17 14h41.07.152874 +0700,
3,29,faces/known/known_76.jpg,known,28,28,0,space,0.6689532999998846,0.18373500000052445,0,28,28,28,108.16553219999969,,,,,,,,,108.1616124000002,109.14496400000007,110.12269769999966,110.09735209999963,110.11641210000016,110.12269769999966,110.12269769999966,0.019071700000495184,1.009812299999794,112.0991783999998,space,0.6689532999998846,0.18373500000052445,,,,,,102,003,2025-05-17_14h40.57.329,project,2024.2.4,231.69064665074265,2025-05-17 14h41.07.152874 +0700,
3,30,faces/known/known_47.jpg,known,29,29,0,space,0.9792379000000437,0.19920839999940654,0,29,29,29,112.10330450000038,,,,,,,,,112.0994297999996,113.08701010000004,114.09972349999953,114.0666057999997,114.09613919999993,114.09972349999953,114.09972349999953,0.02954520000002958,1.0158029000003808,116.07026719999976,space,0.9792379000000437,0.19920839999940654,,,,,,102,003,2025-05-17_14h40.57.329,project,2024.2.4,231.69064665074265,2025-05-17 14h41.07.152874 +0700,
3,31,faces/known/known_102.jpg,known,30,30,0,space,0.8821516999996675,0.22500169999966602,0,30,30,30,116.07424619999983,,,,,,,,,116.07050929999969,117.05341219999991,117.7801927999999,117.73064969999996,117.7759788000003,117.7801927999999,117.7801927999999,0.04535639999994601,1.033069500000238,119.7322949999998,space,0.8821516999996675,0.22500169999966602,,,,,,102,003,2025-05-17_14h40.57.329,project,2024.2.4,231.69064665074265,2025-05-17 14h41.07.152874 +0700,
3,32,faces/unknown/unknown_202.jpg,unknown,31,31,0,None,,,0,31,31,31,119.73640259999956,,,,,,,,,119.73243050000019,120.72005520000039,121.49365080000007,121.44132199999967,121.4906676999999,121.49365080000007,121.49365080000007,0.0493532000000414,1.036928600000465,123.44487560000016,None,,,,,,,,102,003,2025-05-17_14h40.57.329,project,2024.2.4,231.69064665074265,2025-05-17 14h41.07.152874 +0700,
3,33,faces/unknown/unknown_116.jpg,unknown,32,32,0,None,,,0,32,32,32,123.44917299999997,,,,,,,,,123.44499040000028,124.42866109999977,125.28946999999971,125.23717889999989,125.28596749999997,125.28946999999971,125.28946999999971,0.048800000000483124,1.0391743000000133,127.24081959999967,None,,,,,,,,102,003,2025-05-17_14h40.57.329,project,2024.2.4,231.69064665074265,2025-05-17 14h41.07.152874 +0700,
3,34,faces/unknown/unknown_259.jpg,unknown,33,33,0,None,,,0,33,33,33,127.24500139999964,,,,,,,,,127.24101020000035,128.22422590000042,129.18597549999959,129.12927229999968,129.18276559999958,129.18597549999959,129.18597549999959,0.05349659999956202,1.040933700000096,131.13261409999996,None,,,,,,,,102,003,2025-05-17_14h40.57.329,project,2024.2.4,231.69064665074265,2025-05-17 14h41.07.152874 +0700,
3,35,faces/known/known_84.jpg,known,34,34,0,space,0.620999099999608,0.20774770000025455,0,34,34,34,131.1365839,,,,,,,,,131.13285460000043,132.1162221000004,133.1053105000001,133.07714419999957,133.09859810000034,133.1053105000001,133.1053105000001,0.02146880000054807,1.0120604000003368,135.07833550000032,space,0.620999099999608,0.20774770000025455,,,,,,102,003,2025-05-17_14h40.57.329,project,2024.2.4,231.69064665074265,2025-05-17 14h41.07.152874 +0700,
3,36,faces/unknown/unknown_270.jpg,unknown,35,35,0,None,,,0,35,35,35,135.08249350000006,,,,,,,,,135.07847239999955,136.06576719999975,136.99518790000002,136.9329047000001,136.9921215000004,136.99518790000002,136.99518790000002,0.05922700000064651,1.0452204000002894,138.93645170000036,None,,,,,,,,102,003,2025-05-17_14h40.57.329,project,2024.2.4,231.69064665074265,2025-05-17 14h41.07.152874 +0700,
3,37,faces/known/known_17.jpg,known,36,36,0,space,0.6230980000000272,0.20756640000035986,0,36,36,36,138.94078400000035,,,,,,,,,138.93656699999974,139.92047559999992,140.5521202,140.52127529999962,140.54880150000008,140.5521202,140.5521202,0.027466999999887776,1.0138670999995156,142.52560540000013,space,0.6230980000000272,0.20756640000035986,,,,,,102,003,2025-05-17_14h40.57.329,project,2024.2.4,231.69064665074265,2025-05-17 14h41.07.152874 +0700,
3,38,faces/unknown/unknown_13.jpg,unknown,37,37,0,None,,,0,37,37,37,142.52801389999968,,,,,,,,,142.5257333999998,143.51176490000034,144.17944420000003,144.12486420000005,144.17682570000034,144.17944420000003,144.17944420000003,0.05196389999946405,1.0410323999994944,146.12858940000024,None,,,,,,,,102,003,2025-05-17_14h40.57.329,project,2024.2.4,231.69064665074265,2025-05-17 14h41.07.152874 +0700,
3,39,faces/unknown/unknown_165.jpg,unknown,38,38,0,None,,,0,38,38,38,146.13338980000026,,,,,,,,,146.1288725000004,147.1120278999997,148.10501659999954,148.05389060000016,148.10321170000043,148.10501659999954,148.10501659999954,0.049340599999595725,1.0340558999996574,150.05754350000007,None,,,,,,,,102,003,2025-05-17_14h40.57.329,project,2024.2.4,231.69064665074265,2025-05-17 14h41.07.152874 +0700,
3,40,faces/unknown/unknown_38.jpg,unknown,39,39,0,None,,,0,39,39,39,150.06156050000027,,,,,,,,,150.05774089999977,151.04079290000027,152.05423299999984,152.00849560000006,152.05124249999972,152.05423299999984,152.05423299999984,0.04275099999995291,1.028385900000103,154.01164749999953,None,,,,,,,,102,003,2025-05-17_14h40.57.329,project,2024.2.4,231.69064665074265,2025-05-17 14h41.07.152874 +0700,
3,41,faces/unknown/unknown_132.jpg,unknown,40,40,0,None,,,0,40,40,40,154.0156520999999,,,,,,,,,154.01187370000025,154.99970459999986,155.97881280000001,155.91291679999995,155.97541999999976,155.97881280000001,155.97881280000001,0.06251609999981156,1.0506373999996867,157.9158723999999,None,,,,,,,,102,003,2025-05-17_14h40.57.329,project,2024.2.4,231.69064665074265,2025-05-17 14h41.07.152874 +0700,
3,42,faces/known/known_146.jpg,known,41,41,0,space,0.6252720000002228,0.2001044999997248,0,41,41,41,157.9199362999998,,,,,,,,,157.91610560000026,158.90318910000042,159.63639320000038,159.6041851,159.6334694999996,159.63639320000038,159.63639320000038,0.0292844999994486,1.0157737999998062,161.60753889999978,space,0.6252720000002228,0.2001044999997248,,,,,,102,003,2025-05-17_14h40.57.329,project,2024.2.4,231.69064665074265,2025-05-17 14h41.07.152874 +0700,
3,43,faces/unknown/unknown_0.jpg,unknown,42,42,0,None,,,0,42,42,42,161.61272569999983,,,,,,,,,161.60773359999985,162.5911874000003,163.46262860000024,163.4148863999999,163.45625850000033,163.46262860000024,163.46262860000024,0.04138650000004418,1.0326218000000154,165.4158054999998,None,,,,,,,,102,003,2025-05-17_14h40.57.329,project,2024.2.4,231.69064665074265,2025-05-17 14h41.07.152874 +0700,
3,44,faces/unknown/unknown_59.jpg,unknown,43,43,0,None,,,0,43,43,43,165.41978990000007,,,,,,,,,165.41602289999992,166.40331179999976,167.4035157999997,167.36166700000012,167.40044039999975,167.4035157999997,167.4035157999997,0.038791800000581134,1.0247212000003856,169.3624235999996,None,,,,,,,,102,003,2025-05-17_14h40.57.329,project,2024.2.4,231.69064665074265,2025-05-17 14h41.07.152874 +0700,
3,45,faces/unknown/unknown_33.jpg,unknown,44,44,0,None,,,0,44,44,44,169.36559659999966,,,,,,,,,169.36266820000037,170.34904840000036,171.2652922999996,171.21829700000035,171.2585726999996,171.2652922999996,171.2652922999996,0.040292499999850406,1.0308967999999368,173.2200684999998,None,,,,,,,,102,003,2025-05-17_14h40.57.329,project,2024.2.4,231.69064665074265,2025-05-17 14h41.07.152874 +0700,
3,46,faces/known/known_105.jpg,known,45,45,0,space,0.6574975000003178,0.20742080000036367,0,45,45,45,173.22417979999955,,,,,,,,,173.2202797,174.20765250000022,175.1810158999997,175.12880500000028,175.17771520000042,175.1810158999997,175.1810158999997,0.048921500000687956,1.0371916000003694,177.1325506000003,space,0.6574975000003178,0.20742080000036367,,,,,,102,003,2025-05-17_14h40.57.329,project,2024.2.4,231.69064665074265,2025-05-17 14h41.07.152874 +0700,
3,47,faces/known/known_23.jpg,known,46,46,0,space,0.6562057999999524,0.18416309999975056,0,46,46,46,177.1366797999999,,,,,,,,,177.1327953,178.11602690000018,178.93351390000043,178.88590600000043,178.92921149999984,178.93351390000043,178.93351390000043,0.04331770000044344,1.030564400000003,180.88671150000027,space,0.6562057999999524,0.18416309999975056,,,,,,102,003,2025-05-17_14h40.57.329,project,2024.2.4,231.69064665074265,2025-05-17 14h41.07.152874 +0700,
3,48,faces/known/known_41.jpg,known,47,47,0,space,1.4540393000006588,0.17609189999984665,0,47,47,47,180.8905391999997,,,,,,,,,180.88693909999984,181.87406999999985,182.82425619999958,182.7918098,182.8210554999996,182.82425619999958,182.82425619999958,0.029248699999698147,1.0159858999995777,184.79630989999987,space,1.4540393000006588,0.17609189999984665,,,,,,102,003,2025-05-17_14h40.57.329,project,2024.2.4,231.69064665074265,2025-05-17 14h41.07.152874 +0700,
3,49,faces/unknown/unknown_152.jpg,unknown,48,48,0,None,,,0,48,48,48,184.79909059999954,,,,,,,,,184.79654990000017,185.77864649999992,186.50239770000007,186.4429252,186.49505750000026,186.50239770000007,186.50239770000007,0.052143799999612384,1.0460800999999265,188.44477540000025,None,,,,,,,,102,003,2025-05-17_14h40.57.329,project,2024.2.4,231.69064665074265,2025-05-17 14h41.07.152874 +0700,
3,50,faces/known/known_138.jpg,known,49,49,0,space,0.7721455999999307,0.1837177999996129,0,49,49,49,188.45003420000012,,,,,,,,,188.44496249999975,189.43569109999953,190.16232579999996,190.10692389999986,190.15684249999958,190.16232579999996,190.16232579999996,0.049929700000575394,1.0391286000003674,192.1076665999999,space,0.7721455999999307,0.1837177999996129,,,,,,102,003,2025-05-17_14h40.57.329,project,2024.2.4,231.69064665074265,2025-05-17 14h41.07.152874 +0700,
3,51,faces/unknown/unknown_12.jpg,unknown,50,50,0,None,,,0,50,50,50,192.11174570000003,,,,,,,,,192.10785510000005,193.09487379999973,193.92810290000034,193.87114219999967,193.92503709999983,193.92810290000034,193.92810290000034,0.05389869999999064,1.0403761999996277,195.87442399999964,None,,,,,,,,102,003,2025-05-17_14h40.57.329,project,2024.2.4,231.69064665074265,2025-05-17 14h41.07.152874 +0700,
3,52,faces/known/known_16.jpg,known,51,51,0,space,0.9297632999996495,0.19964640000034706,0,51,51,51,195.87824089999958,,,,,,,,,195.87463149999985,196.8614219000001,197.8282247999996,197.77340800000002,197.8213642999999,197.8282247999996,197.8282247999996,0.04796870000063791,1.0446084000004703,199.77386190000016,space,0.9297632999996495,0.19964640000034706,,,,,,102,003,2025-05-17_14h40.57.329,project,2024.2.4,231.69064665074265,2025-05-17 14h41.07.152874 +0700,
3,53,faces/known/known_137.jpg,known,52,52,0,space,0.792097399999875,0.1999736000007033,0,52,52,52,199.77794730000005,,,,,,,,,199.7740104000004,200.76146140000037,201.76539179999963,201.70397429999957,201.76236379999955,201.76539179999963,201.76539179999963,0.05839399999968009,1.0456002000000808,203.70777439999983,space,0.792097399999875,0.1999736000007033,,,,,,102,003,2025-05-17_14h40.57.329,project,2024.2.4,231.69064665074265,2025-05-17 14h41.07.152874 +0700,
3,54,faces/unknown/unknown_224.jpg,unknown,53,53,0,None,,,0,53,53,53,203.7116501999999,,,,,,,,,203.70800539999982,204.69125470000017,205.5780977000004,205.52734119999968,205.5714299000001,205.5780977000004,205.5780977000004,0.04410420000021986,1.0405274000004283,207.52849330000026,None,,,,,,,,102,003,2025-05-17_14h40.57.329,project,2024.2.4,231.69064665074265,2025-05-17 14h41.07.152874 +0700,
3,55,faces/unknown/unknown_239.jpg,unknown,54,54,0,None,,,0,54,54,54,207.53252020000036,,,,,,,,,207.52874510000038,208.5160218000001,209.31468380000024,209.25888180000038,209.31294040000012,209.31468380000024,209.31468380000024,0.05405200000041077,1.0404146000000765,211.26178199999958,None,,,,,,,,102,003,2025-05-17_14h40.57.329,project,2024.2.4,231.69064665074265,2025-05-17 14h41.07.152874 +0700,
3,56,faces/known/known_5.jpg,known,55,55,0,space,1.2339195999993535,0.16691900000023452,0,55,55,55,211.26669179999953,,,,,,,,,211.26199030000043,212.24963910000042,213.0932468000001,213.04141049999998,213.0896687000004,213.0932468000001,213.0932468000001,0.04827190000014525,1.0376707999994323,215.0448425000004,space,1.2339195999993535,0.16691900000023452,,,,,,102,003,2025-05-17_14h40.57.329,project,2024.2.4,231.69064665074265,2025-05-17 14h41.07.152874 +0700,
3,57,faces/unknown/unknown_267.jpg,unknown,56,56,0,None,,,0,56,56,56,215.04896089999966,,,,,,,,,215.0449804,216.02843370000028,216.83194300000014,216.77948000000015,216.82880130000012,216.83194300000014,216.83194300000014,0.049318899999889254,1.036306500000137,218.7824817999999,None,,,,,,,,102,003,2025-05-17_14h40.57.329,project,2024.2.4,231.69064665074265,2025-05-17 14h41.07.152874 +0700,
3,58,faces/known/known_31.jpg,known,57,57,0,None,,,0,57,57,57,218.78662150000036,,,,,,,,,218.78271229999973,219.77011140000013,220.72898259999965,220.67931529999987,220.72215190000043,220.72898259999965,220.72898259999965,0.04285150000032445,1.0354968999999983,222.6824945999997,None,,,,,,,,102,003,2025-05-17_14h40.57.329,project,2024.2.4,231.69064665074265,2025-05-17 14h41.07.152874 +0700,
3,59,faces/unknown/unknown_281.jpg,unknown,58,58,0,None,,,0,58,58,58,222.68657859999985,,,,,,,,,222.68272249999973,223.66986160000033,224.38242050000008,224.32876870000018,224.37948450000022,224.38242050000008,224.38242050000008,0.05071660000066913,1.0372517000005246,226.3323561999996,None,,,,,,,,102,003,2025-05-17_14h40.57.329,project,2024.2.4,231.69064665074265,2025-05-17 14h41.07.152874 +0700,
3,60,faces/unknown/unknown_61.jpg,unknown,59,59,0,None,,,0,59,59,59,226.33644449999974,,,,,,,,,226.3325451999999,227.31606910000028,228.05625549999968,228.0079397999998,228.05264609999995,228.05625549999968,228.05625549999968,0.04471769999963726,1.031063799999174,230.01140570000007,None,,,,,,,,102,003,2025-05-17_14h40.57.329,project,2024.2.4,231.69064665074265,2025-05-17 14h41.07.152874 +0700,
,,,,,,,,,,,,,,,,,,,,,,,,,,,,,,,,,,,,230.01148039999953,230.0156705999998,231.1106552000001,230.99927339999977,,102,003,2025-05-17_14h40.57.329,project,2024.2.4,231.69064665074265,2025-05-17 14h41.07.152874 +0700,
,,,,,,,,,,,,,,,,,,,,,,,,,,,,,,,,,,,,,,,,"{2, 3, 4, 9, 11, 14, 15, 16, 17, 18, 19, 21, 22, 23, 26, 27, 29, 30, 31, 35, 37, 42, 46, 47, 48, 50, 52, 53, 56}",,,,,,,,
