block,trial,image,type,thisN,thisTrialN,thisRepN,response.keys,response.rt,response.duration,trial_loop.thisRepN,trial_loop.thisTrialN,trial_loop.thisN,trial_loop.thisIndex,thisRow.t,notes,Welcome.started,Start_text.started,key_resp.started,Welcome.stopped,key_resp.keys,key_resp.rt,key_resp.duration,trial_ex.started,fixation.started,fixation.stopped,trial_ex.stopped,faces.started,faces_image.started,response.started,serialPort.started,serialPort.stopped,faces.stopped,trial_loop.response.keys,faces_image.stopped,response.stopped,trial_loop.response.rt,trial_loop.response.duration,end_block.started,Endding.started,Endding.stopped,end_block.stopped,pressed_trials,participant,session,date,expName,psychopyVersion,frameRate,expStart,
,,,,,,,,,,,,,,,,0.1501840999990236,0.15463719999934256,0.15463719999934256,1.167543300000034,space,1.00681110000005,None,,,,,,,,,,,,,,,,,,,,,103,001,2025-05-17_15h27.33.895,project,2024.2.4,266.7918809826878,2025-05-17 15h27.48.360016 +0700,
1,1,faces/known/known_125.jpg,known,0,0,0,None,,,0,0,0,0,1.1788151000000653,,,,,,,,,1.176343999999517,2.157766799999081,2.838630700000067,2.7962279000003036,2.8351997999998275,2.838630700000067,2.838630700000067,0.038983899999948335,1.027990200000204,4.7996731999992335,None,,,,,,,,,,103,001,2025-05-17_15h27.33.895,project,2024.2.4,266.7918809826878,2025-05-17 15h27.48.360016 +0700,
1,2,faces/unknown/unknown_233.jpg,unknown,1,1,0,None,,,0,1,1,1,4.8037941999991745,,,,,,,,,4.799828400000479,5.782661100000041,6.7188074000005145,6.671463599999697,6.715039900000193,6.7188074000005145,6.7188074000005145,0.04357770000024175,1.0320945999992546,8.674702700000125,None,,,,,,,,,,103,001,2025-05-17_15h27.33.895,project,2024.2.4,266.7918809826878,2025-05-17 15h27.48.360016 +0700,
1,3,faces/known/known_79.jpg,known,2,2,0,space,0.7038364999989426,0.12844360000053712,0,2,2,2,8.678410799999256,,,,,,,,,8.674888399998963,9.657820799999172,10.433164000000033,10.416971000000558,10.429934899999353,10.433164000000033,10.433164000000033,0.012971299998753238,0.9990837999994255,12.41655879999962,space,12.420271900000444,12.420271900000444,0.7038364999989426,0.12844360000053712,,,,,,103,001,2025-05-17_15h27.33.895,project,2024.2.4,266.7918809826878,2025-05-17 15h27.48.360016 +0700,
1,4,faces/unknown/unknown_253.jpg,unknown,3,3,0,None,,,0,3,3,3,12.420271900000444,,,,,,,,,12.416760000000068,13.403635900000154,14.141027199999371,14.09693519999928,14.137483200000133,14.141027199999371,14.141027199999371,0.040551300000515766,1.027470799999719,16.099309499999436,None,,,,,,,,,,103,001,2025-05-17_15h27.33.895,project,2024.2.4,266.7918809826878,2025-05-17 15h27.48.360016 +0700,
1,5,faces/unknown/unknown_142.jpg,unknown,4,4,0,None,,,0,4,4,4,16.103358200000002,,,,,,,,,16.099442499998986,17.08716110000023,18.039418599999408,18.000513900000442,18.035991299999296,18.039418599999408,18.039418599999408,0.03547769999931916,1.023803099998986,20.003620199999204,None,,,,,,,,,,103,001,2025-05-17_15h27.33.895,project,2024.2.4,266.7918809826878,2025-05-17 15h27.48.360016 +0700,
1,6,faces/unknown/unknown_141.jpg,unknown,5,5,0,None,,,0,5,5,5,20.007695700000113,,,,,,,,,20.003866299999572,20.990886699999464,21.76475980000032,21.729059600000255,21.761283300000287,21.76475980000032,21.76475980000032,0.032238399999187095,1.0208657000002859,23.732744099999763,None,,,,,,,,,,103,001,2025-05-17_15h27.33.895,project,2024.2.4,266.7918809826878,2025-05-17 15h27.48.360016 +0700,
1,7,faces/unknown/unknown_120.jpg,unknown,6,6,0,None,,,0,6,6,6,23.736806900000374,,,,,,,,,23.73297189999903,24.716576499999064,25.633083599999736,25.58389089999946,25.630795099999887,25.633083599999736,25.633083599999736,0.04691420000017388,1.0323932000010245,27.587142099999255,None,,,,,,,,,,103,001,2025-05-17_15h27.33.895,project,2024.2.4,266.7918809826878,2025-05-17 15h27.48.360016 +0700,
1,8,faces/known/known_28.jpg,known,7,7,0,None,,,0,7,7,7,27.591172700000243,,,,,,,,,27.587370600000213,28.57071259999975,29.39772830000038,29.354554300000018,29.394251499999882,29.39772830000038,29.39772830000038,0.039699800001471885,1.0282641000012518,31.357933799999955,None,,,,,,,,,,103,001,2025-05-17_15h27.33.895,project,2024.2.4,266.7918809826878,2025-05-17 15h27.48.360016 +0700,
1,9,faces/known/known_63.jpg,known,8,8,0,space,0.6964839000011125,0.12067229999956908,0,8,8,8,31.36207999999897,,,,,,,,,31.35816429999977,32.34131179999895,33.1129650999992,33.08791989999918,33.10897929999919,33.1129650999992,33.1129650999992,0.02109269999891694,1.0115521999996417,35.09133699999984,space,,,0.6964839000011125,0.12067229999956908,,,,,,103,001,2025-05-17_15h27.33.895,project,2024.2.4,266.7918809826878,2025-05-17 15h27.48.360016 +0700,
1,10,faces/known/known_97.jpg,known,9,9,0,None,,,0,9,9,9,35.095218500000556,,,,,,,,,35.091566900000544,36.074694400000226,36.81950610000058,36.80408019999959,36.81576750000022,36.81950610000058,36.81950610000058,0.011714199999914854,0.9994716000001063,38.804127499999595,None,38.80763250000018,38.80763250000018,,,,,,,,103,001,2025-05-17_15h27.33.895,project,2024.2.4,266.7918809826878,2025-05-17 15h27.48.360016 +0700,
1,11,faces/unknown/unknown_248.jpg,unknown,10,10,0,None,,,0,10,10,10,38.80763250000018,,,,,,,,,38.80424219999986,39.791508299998895,40.65899039999931,40.617409899999984,40.655514899999616,40.65899039999931,40.65899039999931,0.038110100000267266,1.0279423000010866,42.620533799999976,None,,,,,,,,,,103,001,2025-05-17_15h27.33.895,project,2024.2.4,266.7918809826878,2025-05-17 15h27.48.360016 +0700,
1,12,faces/known/known_132.jpg,known,11,11,0,space,0.7154989999999088,0.13711809999949764,0,11,11,11,42.624517399999604,,,,,,,,,42.620794399999795,43.60405679999894,44.2773586000003,44.25437349999993,44.27355229999921,44.2773586000003,44.2773586000003,0.019199399999706657,1.0076886999995622,46.25794529999985,space,,,0.7154989999999088,0.13711809999949764,,,,,,103,001,2025-05-17_15h27.33.895,project,2024.2.4,266.7918809826878,2025-05-17 15h27.48.360016 +0700,
1,13,faces/unknown/unknown_264.jpg,unknown,12,12,0,None,,,0,12,12,12,46.26201670000046,,,,,,,,,46.25817900000038,47.24128449999989,48.01839099999961,47.979833399998824,48.014992899999925,48.01839099999961,48.01839099999961,0.0351624000013544,1.023534700001619,49.9830249000006,None,,,,,,,,,,103,001,2025-05-17_15h27.33.895,project,2024.2.4,266.7918809826878,2025-05-17 15h27.48.360016 +0700,
1,14,faces/known/known_128.jpg,known,13,13,0,None,,,0,13,13,13,49.986789799999315,,,,,,,,,49.983205700000326,50.97013599999991,51.61773009999888,51.59612310000011,51.61431699999957,51.61773009999888,51.61773009999888,0.018200600001364364,1.0072625000011612,53.59937639999953,None,,,,,,,,,,103,001,2025-05-17_15h27.33.895,project,2024.2.4,266.7918809826878,2025-05-17 15h27.48.360016 +0700,
1,15,faces/known/known_43.jpg,known,14,14,0,space,0.8248980000007577,0.13705010000012408,0,14,14,14,53.60343490000014,,,,,,,,,53.5995096000006,54.582974699998886,55.359924299998966,55.342307200000505,55.35802700000022,55.359924299998966,55.359924299998966,0.015728500000477652,1.00280229999953,57.34552169999915,space,,,0.8248980000007577,0.13705010000012408,,,,,,103,001,2025-05-17_15h27.33.895,project,2024.2.4,266.7918809826878,2025-05-17 15h27.48.360016 +0700,
1,16,faces/unknown/unknown_273.jpg,unknown,15,15,0,None,,,0,15,15,15,57.34935719999885,,,,,,,,,57.345762200000536,58.332694299999275,59.06365740000001,59.0211091000001,59.05999849999898,59.06365740000001,59.06365740000001,0.038896599999134196,1.0283221999998204,61.024470599999404,None,,,,,,,,,,103,001,2025-05-17_15h27.33.895,project,2024.2.4,266.7918809826878,2025-05-17 15h27.48.360016 +0700,
1,17,faces/unknown/unknown_69.jpg,unknown,16,16,0,None,,,0,16,16,16,61.02852789999997,,,,,,,,,61.02465669999947,62.00795300000027,62.71856800000023,62.67542920000051,62.71500829999968,62.71856800000023,62.71856800000023,0.03958000000056927,1.0281235999991623,64.67874429999938,None,,,,,,,,,,103,001,2025-05-17_15h27.33.895,project,2024.2.4,266.7918809826878,2025-05-17 15h27.48.360016 +0700,
1,18,faces/known/known_81.jpg,known,17,17,0,space,0.5996307999994315,0.11947479999980715,0,17,17,17,64.68265919999976,,,,,,,,,64.67886229999931,65.66222190000008,66.30604519999906,66.28473759999906,66.30267819999972,66.30604519999906,66.30604519999906,0.017948599999726866,1.0063616000006732,68.28689420000046,space,,,0.5996307999994315,0.11947479999980715,,,,,,103,001,2025-05-17_15h27.33.895,project,2024.2.4,266.7918809826878,2025-05-17 15h27.48.360016 +0700,
1,19,faces/known/known_85.jpg,known,18,18,0,space,0.6776019000008091,0.15164109999932407,0,18,18,18,68.29097879999972,,,,,,,,,68.2871025000004,69.27461009999934,70.25162300000011,70.23007419999885,70.24831450000056,70.25162300000011,70.25162300000011,0.018241099998704158,1.0068087999989075,72.23278299999947,space,,,0.6776019000008091,0.15164109999932407,,,,,,103,001,2025-05-17_15h27.33.895,project,2024.2.4,266.7918809826878,2025-05-17 15h27.48.360016 +0700,
1,20,faces/unknown/unknown_145.jpg,unknown,19,19,0,None,,,0,19,19,19,72.23670899999888,,,,,,,,,72.23303699999997,73.22027049999997,73.90021139999953,73.85844189999989,73.89678730000014,73.90021139999953,73.90021139999953,0.03835160000016913,1.0242626999988715,75.86191039999903,None,,,,,,,,,,103,001,2025-05-17_15h27.33.895,project,2024.2.4,266.7918809826878,2025-05-17 15h27.48.360016 +0700,
1,21,faces/known/known_109.jpg,known,20,20,0,space,0.5222256999986712,0.1523720000004687,0,20,20,20,75.86604939999961,,,,,,,,,75.86213139999927,76.84517550000055,77.77466449999883,77.75036,77.77110100000027,77.77466449999883,77.77466449999883,0.02074930000162567,1.0073200000006182,79.75352819999898,space,,,0.5222256999986712,0.1523720000004687,,,,,,103,001,2025-05-17_15h27.33.895,project,2024.2.4,266.7918809826878,2025-05-17 15h27.48.360016 +0700,
1,22,faces/unknown/unknown_123.jpg,unknown,21,21,0,None,,,0,21,21,21,79.75764399999935,,,,,,,,,79.75377689999914,80.73705680000057,81.37629209999977,81.33361049999985,81.37260579999929,81.37629209999977,81.37629209999977,0.03900160000011965,1.0281890999995085,83.3368231000004,None,,,,,,,,,,103,001,2025-05-17_15h27.33.895,project,2024.2.4,266.7918809826878,2025-05-17 15h27.48.360016 +0700,
1,23,faces/known/known_39.jpg,known,22,22,0,space,0.9714973000009195,0.11925890000020445,0,22,22,22,83.34098629999971,,,,,,,,,83.33695169999919,84.32047710000006,85.29417339999964,85.24213000000054,85.29173939999964,85.29417339999964,85.29417339999964,0.04961150000053749,1.0365586999996594,87.24523109999973,space,,,0.9714973000009195,0.11925890000020445,,,,,,103,001,2025-05-17_15h27.33.895,project,2024.2.4,266.7918809826878,2025-05-17 15h27.48.360016 +0700,
1,24,faces/known/known_62.jpg,known,23,23,0,space,0.640994999999748,0.12700419999964652,0,23,23,23,87.24934140000005,,,,,,,,,87.24553509999896,88.23263579999912,88.98469289999957,88.96287589999883,88.98114170000008,88.98469289999957,88.98469289999957,0.018284400000993628,1.007301000001462,90.9661715000002,space,,,0.640994999999748,0.12700419999964652,,,,,,103,001,2025-05-17_15h27.33.895,project,2024.2.4,266.7918809826878,2025-05-17 15h27.48.360016 +0700,
1,25,faces/known/known_27.jpg,known,24,24,0,None,,,0,24,24,24,90.97019139999975,,,,,,,,,90.96643439999934,91.95377689999987,92.63311040000008,92.58790090000002,92.62975000000006,92.63311040000008,92.63311040000008,0.04185669999969832,1.028007200000502,94.59100070000022,None,,,,,,,,,,103,001,2025-05-17_15h27.33.895,project,2024.2.4,266.7918809826878,2025-05-17 15h27.48.360016 +0700,
1,26,faces/known/known_45.jpg,known,25,25,0,space,0.6611307999992277,0.1273075000008248,0,25,25,25,94.59505329999956,,,,,,,,,94.59120040000016,95.57470459999968,96.46869030000016,96.45056079999995,96.46506389999922,96.46869030000016,96.46869030000016,0.014509900000120979,1.0032547999999224,98.45355930000005,space,,,0.6611307999992277,0.1273075000008248,,,,,,103,001,2025-05-17_15h27.33.895,project,2024.2.4,266.7918809826878,2025-05-17 15h27.48.360016 +0700,
1,27,faces/unknown/unknown_175.jpg,unknown,26,26,0,None,,,0,26,26,26,98.45844529999886,,,,,,,,,98.45375029999923,99.44191099999989,100.11436940000021,100.07098919999953,100.11107450000054,100.11436940000021,100.11436940000021,0.04009390000101121,1.0284035000004224,102.07543380000061,None,,,,,,,,,,103,001,2025-05-17_15h27.33.895,project,2024.2.4,266.7918809826878,2025-05-17 15h27.48.360016 +0700,
1,28,faces/unknown/unknown_226.jpg,unknown,27,27,0,None,,,0,27,27,27,102.07856890000039,,,,,,,,,102.07567399999971,103.06172069999957,104.01632810000046,103.97553340000013,104.01266149999901,104.01632810000046,104.01632810000046,0.03714629999922181,1.0240985000000364,105.9785238000004,None,,,,,,,,,,103,001,2025-05-17_15h27.33.895,project,2024.2.4,266.7918809826878,2025-05-17 15h27.48.360016 +0700,
1,29,faces/unknown/unknown_119.jpg,unknown,28,28,0,None,,,0,28,28,28,105.98266049999984,,,,,,,,,105.97878429999946,106.96595100000013,107.9707115000001,107.93015899999955,107.96713210000053,107.9707115000001,107.9707115000001,0.03697189999911643,1.0232818000004045,109.9329472999998,None,,,,,,,,,,103,001,2025-05-17_15h27.33.895,project,2024.2.4,266.7918809826878,2025-05-17 15h27.48.360016 +0700,
1,30,faces/known/known_61.jpg,known,29,29,0,space,0.6360346999990725,0.12778660000003583,0,29,29,29,109.93701510000028,,,,,,,,,109.9331388999999,110.92030159999922,111.88486819999889,111.86656949999997,111.8814481999998,111.88486819999889,111.88486819999889,0.014898400000674883,1.0035098000007565,113.87016219999896,space,,,0.6360346999990725,0.12778660000003583,,,,,,103,001,2025-05-17_15h27.33.895,project,2024.2.4,266.7918809826878,2025-05-17 15h27.48.360016 +0700,
1,31,faces/unknown/unknown_179.jpg,unknown,30,30,0,None,,,0,30,30,30,113.87425669999902,,,,,,,,,113.87039220000042,114.85366839999915,115.70872260000033,115.67098810000061,115.70682829999896,115.70872260000033,115.70872260000033,0.03584719999889785,1.024429399998553,117.67438020000009,None,,,,,,,,,,103,001,2025-05-17_15h27.33.895,project,2024.2.4,266.7918809826878,2025-05-17 15h27.48.360016 +0700,
1,32,faces/unknown/unknown_280.jpg,unknown,31,31,0,None,,,0,31,31,31,117.67849609999939,,,,,,,,,117.67456139999922,118.65763209999932,119.44540310000048,119.40405049999936,119.44193069999892,119.44540310000048,119.44540310000048,0.037885799998548464,1.024434899998596,121.40787459999956,None,,,,,,,,,,103,001,2025-05-17_15h27.33.895,project,2024.2.4,266.7918809826878,2025-05-17 15h27.48.360016 +0700,
1,33,faces/unknown/unknown_298.jpg,unknown,32,32,0,None,,,0,32,32,32,121.41182389999994,,,,,,,,,121.40809909999916,122.39112869999917,123.27181129999917,123.22979540000051,123.26823080000031,123.27181129999917,123.27181129999917,0.03843649999907939,1.0280308999990666,125.23258820000046,None,,,,,,,,,,103,001,2025-05-17_15h27.33.895,project,2024.2.4,266.7918809826878,2025-05-17 15h27.48.360016 +0700,
1,34,faces/unknown/unknown_180.jpg,unknown,33,33,0,None,,,0,33,33,33,125.23663119999947,,,,,,,,,125.23276970000006,126.21620289999919,126.91348219999963,126.87458680000054,126.91019819999929,126.91348219999963,126.91348219999963,0.03562199999942095,1.0251831999994465,128.87839709999935,None,,,,,,,,,,103,001,2025-05-17_15h27.33.895,project,2024.2.4,266.7918809826878,2025-05-17 15h27.48.360016 +0700,
1,35,faces/unknown/unknown_296.jpg,unknown,34,34,0,None,,,0,34,34,34,128.88253619999887,,,,,,,,,128.8785544000002,129.8623312999989,130.74940400000014,130.70838390000063,130.74609670000063,130.74940400000014,130.74940400000014,0.0377238999990368,1.0246846999998525,132.7118317000004,None,,,,,,,,,,103,001,2025-05-17_15h27.33.895,project,2024.2.4,266.7918809826878,2025-05-17 15h27.48.360016 +0700,
1,36,faces/known/known_98.jpg,known,35,35,0,None,,,0,35,35,35,132.71576989999994,,,,,,,,,132.71194669999932,133.6955937999992,134.54841359999955,134.52946840000004,134.54508469999928,134.54841359999955,134.54841359999955,0.015629100000296603,1.0032852000003913,136.53272040000047,None,,,,,,,,,,103,001,2025-05-17_15h27.33.895,project,2024.2.4,266.7918809826878,2025-05-17 15h27.48.360016 +0700,
1,37,faces/known/known_33.jpg,known,36,36,0,space,0.7834844000008161,0.13577609999993,0,36,36,36,136.53671869999926,,,,,,,,,136.53290919999927,137.51622150000003,138.2653592000006,138.22937569999885,138.26203499999974,138.2653592000006,138.2653592000006,0.032666899998730514,1.0203787999998895,140.23272550000002,space,,,0.7834844000008161,0.13577609999993,,,,,,103,001,2025-05-17_15h27.33.895,project,2024.2.4,266.7918809826878,2025-05-17 15h27.48.360016 +0700,
1,38,faces/known/known_117.jpg,known,37,37,0,space,0.7497406000002229,0.1437463000002026,0,37,37,37,140.2368439999991,,,,,,,,,140.23294030000034,141.21608819999892,142.12371259999964,142.10454519999985,142.12051959999917,142.12371259999964,142.12371259999964,0.015981900000042515,1.0033376000010321,144.1078166999996,space,,,0.7497406000002229,0.1437463000002026,,,,,,103,001,2025-05-17_15h27.33.895,project,2024.2.4,266.7918809826878,2025-05-17 15h27.48.360016 +0700,
1,39,faces/known/known_54.jpg,known,38,38,0,space,0.7074654000007286,0.12837620000027528,0,38,38,38,144.11190050000005,,,,,,,,,144.1080304999996,145.09548229999928,145.82897799999955,145.80476409999937,145.8263896999997,145.82897799999955,145.82897799999955,0.021650799999406445,1.007422000000588,147.807963199999,space,,,0.7074654000007286,0.12837620000027528,,,,,,103,001,2025-05-17_15h27.33.895,project,2024.2.4,266.7918809826878,2025-05-17 15h27.48.360016 +0700,
1,40,faces/unknown/unknown_197.jpg,unknown,39,39,0,None,,,0,39,39,39,147.81197710000015,,,,,,,,,147.8082102999997,148.79098369999883,149.54765550000047,149.50453799999923,149.54434109999966,149.54765550000047,149.54765550000047,0.03981040000144276,1.0282815000009577,151.50791629999912,None,,,,,,,,,,103,001,2025-05-17_15h27.33.895,project,2024.2.4,266.7918809826878,2025-05-17 15h27.48.360016 +0700,
1,41,faces/unknown/unknown_208.jpg,unknown,40,40,0,None,,,0,40,40,40,151.5120810999997,,,,,,,,,151.50814159999936,152.49130479999985,153.39165859999957,153.35044410000046,153.38838039999973,153.39165859999957,153.39165859999957,0.037940999998681946,1.0241673000000446,155.35334779999903,None,,,,,,,,,,103,001,2025-05-17_15h27.33.895,project,2024.2.4,266.7918809826878,2025-05-17 15h27.48.360016 +0700,
1,42,faces/unknown/unknown_189.jpg,unknown,41,41,0,None,,,0,41,41,41,155.3577169,,,,,,,,,155.35348069999964,156.34105029999955,156.99275320000015,156.9538338000002,156.9893790999995,156.99275320000015,156.99275320000015,0.035557799999878625,1.0246110999996745,158.95762250000007,None,,,,,,,,,,103,001,2025-05-17_15h27.33.895,project,2024.2.4,266.7918809826878,2025-05-17 15h27.48.360016 +0700,
1,43,faces/known/known_100.jpg,known,42,42,0,space,0.6639532999997755,0.1436413999999786,0,42,42,42,158.96174409999912,,,,,,,,,158.95781449999959,159.94118750000052,160.70492000000013,160.68379900000036,160.70160099999885,160.70492000000013,160.70492000000013,0.01781420000042999,1.0072290999996767,162.68708739999965,space,,,0.6639532999997755,0.1436413999999786,,,,,,103,001,2025-05-17_15h27.33.895,project,2024.2.4,266.7918809826878,2025-05-17 15h27.48.360016 +0700,
1,44,faces/known/known_13.jpg,known,43,43,0,None,,,0,43,43,43,162.69109670000034,,,,,,,,,162.68732359999922,163.67431969999961,164.3417028999993,164.3005959000002,164.33828859999994,164.3417028999993,164.3417028999993,0.037694299999202485,1.0238432999994984,166.3038861999994,None,,,,,,,,,,103,001,2025-05-17_15h27.33.895,project,2024.2.4,266.7918809826878,2025-05-17 15h27.48.360016 +0700,
1,45,faces/unknown/unknown_100.jpg,unknown,44,44,0,None,,,0,44,44,44,166.30767849999938,,,,,,,,,166.3041219000006,167.29112519999944,167.94137500000033,167.89647969999896,167.9381159000004,167.94137500000033,167.94137500000033,0.04164139999920735,1.0276995000003808,169.8994418000002,None,,,,,,,,,,103,001,2025-05-17_15h27.33.895,project,2024.2.4,266.7918809826878,2025-05-17 15h27.48.360016 +0700,
1,46,faces/known/known_9.jpg,known,45,45,0,space,1.1310247000001254,0.12022809999871242,0,45,45,45,169.90370760000042,,,,,,,,,169.89955530000043,170.88686029999917,171.65320640000027,171.60831990000042,171.64946699999928,171.65320640000027,171.65320640000027,0.041161099999953876,1.028577099999893,173.61184069999945,space,,,1.1310247000001254,0.12022809999871242,,,,,,103,001,2025-05-17_15h27.33.895,project,2024.2.4,266.7918809826878,2025-05-17 15h27.48.360016 +0700,
1,47,faces/known/known_73.jpg,known,46,46,0,space,0.5592655999989802,0.14406899999994494,0,46,46,46,173.61589809999896,,,,,,,,,173.6120534999991,174.59538509999948,175.56914399999914,175.54995989999952,175.56693160000032,175.56914399999914,175.56914399999914,0.01698240000041551,1.0034615000004123,177.553677599999,space,,,0.5592655999989802,0.14406899999994494,,,,,,103,001,2025-05-17_15h27.33.895,project,2024.2.4,266.7918809826878,2025-05-17 15h27.48.360016 +0700,
1,48,faces/known/known_60.jpg,known,47,47,0,space,0.5916557000000466,0.15935129999888886,0,47,47,47,177.55852799999957,,,,,,,,,177.55392419999953,178.53714760000003,179.21759509999902,179.19990490000055,179.21424320000006,179.21759509999902,179.21759509999902,0.014351300000271294,1.0035342999999557,181.20353539999996,space,,,0.5916557000000466,0.15935129999888886,,,,,,103,001,2025-05-17_15h27.33.895,project,2024.2.4,266.7918809826878,2025-05-17 15h27.48.360016 +0700,
1,49,faces/unknown/unknown_222.jpg,unknown,48,48,0,None,,,0,48,48,48,181.2077033000005,,,,,,,,,181.2037519000005,182.18676950000008,183.09976760000063,183.0459709000006,183.09634369999912,183.09976760000063,183.09976760000063,0.05037779999838676,1.0367014999992534,185.04930989999957,None,,,,,,,,,,103,001,2025-05-17_15h27.33.895,project,2024.2.4,266.7918809826878,2025-05-17 15h27.48.360016 +0700,
1,50,faces/known/known_20.jpg,known,49,49,0,space,0.9270175000001473,0.12860010000076727,0,49,49,49,185.05365569999958,,,,,,,,,185.04951830000027,186.03298229999928,187.04118240000025,187.0039751000004,187.03767010000047,187.04118240000025,187.04118240000025,0.03371770000012475,1.0202503000000434,189.00770449999982,space,,,0.9270175000001473,0.12860010000076727,,,,,,103,001,2025-05-17_15h27.33.895,project,2024.2.4,266.7918809826878,2025-05-17 15h27.48.360016 +0700,
1,51,faces/unknown/unknown_260.jpg,unknown,50,50,0,None,,,0,50,50,50,189.01154250000036,,,,,,,,,189.00789819999954,189.99136519999956,190.92745639999885,190.87528380000003,190.92359260000012,190.92745639999885,190.92745639999885,0.04831610000110231,1.0367227000006096,192.8788628000002,None,,,,,,,,,,103,001,2025-05-17_15h27.33.895,project,2024.2.4,266.7918809826878,2025-05-17 15h27.48.360016 +0700,
1,52,faces/known/known_68.jpg,known,51,51,0,space,0.7250051000009989,0.13521459999901708,0,51,51,51,192.88253789999908,,,,,,,,,192.8791173999998,193.8621289999992,194.54824050000025,194.52518729999974,194.54484909999883,194.54824050000025,194.54824050000025,0.01968029999989085,1.0075182000000495,196.52874949999932,space,,,0.7250051000009989,0.13521459999901708,,,,,,103,001,2025-05-17_15h27.33.895,project,2024.2.4,266.7918809826878,2025-05-17 15h27.48.360016 +0700,
1,53,faces/known/known_107.jpg,known,52,52,0,space,0.8814851000006456,0.152121499999339,0,52,52,52,196.53260749999936,,,,,,,,,196.5289668000005,197.5123380999994,198.18261770000026,198.15844490000018,198.17879539999922,198.18261770000026,198.18261770000026,0.020363899999210844,1.0073138999996445,200.1617642000001,space,,,0.8814851000006456,0.152121499999339,,,,,,103,001,2025-05-17_15h27.33.895,project,2024.2.4,266.7918809826878,2025-05-17 15h27.48.360016 +0700,
1,54,faces/unknown/unknown_173.jpg,unknown,53,53,0,None,,,0,53,53,53,200.16605809999965,,,,,,,,,200.1619972999997,201.14553979999982,202.02872249999928,201.98772269999972,202.02694809999957,202.02872249999928,202.02872249999928,0.03922869999951217,1.0241468000003806,203.9909862000004,None,,,,,,,,,,103,001,2025-05-17_15h27.33.895,project,2024.2.4,266.7918809826878,2025-05-17 15h27.48.360016 +0700,
1,55,faces/unknown/unknown_102.jpg,unknown,54,54,0,None,,,0,54,54,54,203.99504549999983,,,,,,,,,203.99119559999963,204.97464000000036,205.73252499999944,205.69188779999968,205.7303828999993,205.73252499999944,205.73252499999944,0.03849120000086259,1.0241131999991921,207.69521600000007,None,,,,,,,,,,103,001,2025-05-17_15h27.33.895,project,2024.2.4,266.7918809826878,2025-05-17 15h27.48.360016 +0700,
1,56,faces/unknown/unknown_62.jpg,unknown,55,55,0,None,,,0,55,55,55,207.69936359999883,,,,,,,,,207.6954210999993,208.67854810000063,209.4464420000004,209.40033949999997,209.44312009999885,209.4464420000004,209.4464420000004,0.042784999999639695,1.0323666000003868,211.40353080000023,None,,,,,,,,,,103,001,2025-05-17_15h27.33.895,project,2024.2.4,266.7918809826878,2025-05-17 15h27.48.360016 +0700,
1,57,faces/known/known_57.jpg,known,56,56,0,space,0.6732041000013851,0.12794039999971574,0,56,56,56,211.40776580000056,,,,,,,,,211.40373539999928,212.39102189999903,213.38322250000056,213.35889420000058,213.37914319999982,213.38322250000056,213.38322250000056,0.02026529999966442,1.0073403999995207,215.3620394999998,space,,,0.6732041000013851,0.12794039999971574,,,,,,103,001,2025-05-17_15h27.33.895,project,2024.2.4,266.7918809826878,2025-05-17 15h27.48.360016 +0700,
1,58,faces/unknown/unknown_43.jpg,unknown,57,57,0,None,,,0,57,57,57,215.36600299999918,,,,,,,,,215.36227099999996,216.34513589999915,217.22470489999978,217.191152899999,217.22135909999997,217.22470489999978,217.22470489999978,0.03022389999932784,1.0167637999984436,219.19534170000043,None,,,,,,,,,,103,001,2025-05-17_15h27.33.895,project,2024.2.4,266.7918809826878,2025-05-17 15h27.48.360016 +0700,
1,59,faces/unknown/unknown_92.jpg,unknown,58,58,0,None,,,0,58,58,58,219.19951120000042,,,,,,,,,219.19548290000057,220.17881279999892,221.03882669999985,220.99172949999956,221.03544460000012,221.03882669999985,221.03882669999985,0.04373189999932947,1.0325357000001532,222.9952704999996,None,,,,,,,,,,103,001,2025-05-17_15h27.33.895,project,2024.2.4,266.7918809826878,2025-05-17 15h27.48.360016 +0700,
1,60,faces/known/known_8.jpg,known,59,59,0,space,0.9207609000004595,0.15974019999885058,0,59,59,59,222.99931319999996,,,,,,,,,222.9954816999998,223.98099430000002,224.63172230000055,224.5834047999997,224.62824890000047,224.63172230000055,224.63172230000055,0.044858400000521215,1.032549999999901,226.5869079999993,space,,,0.9207609000004595,0.15974019999885058,,,,,,103,001,2025-05-17_15h27.33.895,project,2024.2.4,266.7918809826878,2025-05-17 15h27.48.360016 +0700,
,,,,,,,,,,,,,,,,,,,,,,,,,,,,,,,,,,,,,,226.58703799999967,226.5908402999994,227.68249569999898,227.57522919999974,,103,001,2025-05-17_15h27.33.895,project,2024.2.4,266.7918809826878,2025-05-17 15h27.48.360016 +0700,
,,,,,,,,,,,,,,,,,,,,,,,,,,,,,,,,,,,,,,,,,,"{3, 9, 12, 15, 18, 19, 21, 23, 24, 26, 30, 37, 38, 39, 43, 46, 47, 48, 50, 52, 53, 57, 60}",,,,,,,,
