block,trial,image,type,thisN,thisTrialN,thisRepN,response.keys,response.rt,response.duration,trial_loop.thisRepN,trial_loop.thisTrialN,trial_loop.thisN,trial_loop.thisIndex,thisRow.t,notes,Welcome.started,Start_text.started,key_resp.started,Welcome.stopped,key_resp.keys,key_resp.rt,key_resp.duration,trial_ex.started,fixation.started,fixation.stopped,trial_ex.stopped,faces.started,faces_image.started,response.started,serialPort.started,serialPort.stopped,faces.stopped,trial_loop.response.keys,trial_loop.response.rt,trial_loop.response.duration,faces_image.stopped,response.stopped,end_block.started,Endding.started,Endding.stopped,end_block.stopped,pressed_trials,participant,session,date,expName,psychopyVersion,frameRate,expStart,
,,,,,,,,,,,,,,,,0.0022945999990042765,0.0071059999991121,0.0071059999991121,1.0043095000000903,space,0.99123679999866,None,,,,,,,,,,,,,,,,,,,,,103,005,2025-05-17_15h50.12.302,project,2024.2.4,None,2025-05-17 15h50.24.416763 +0700,
5,1,faces/known/known_88.jpg,known,0,0,0,space,0.5840325999997731,0.15241419999983918,0,0,0,0,1.0110557000007248,,,,,,,,,1.0093097999997553,1.9947338000001764,2.7981675999999425,2.7774446999992506,2.7954312000001664,2.7981675999999425,2.7981675999999425,0.018005099998845253,1.0035760999999184,4.781109999999899,space,0.5840325999997731,0.15241419999983918,,,,,,,,103,005,2025-05-17_15h50.12.302,project,2024.2.4,None,2025-05-17 15h50.24.416763 +0700,
5,2,faces/unknown/unknown_188.jpg,unknown,1,1,0,None,,,0,1,1,1,4.785137099999702,,,,,,,,,4.781344400000307,5.764322200000606,6.425822699999117,6.38189229999989,6.42227339999954,6.425822699999117,6.425822699999117,0.04038399999990361,1.0286991000011767,8.385390600000392,None,,,,,,,,,,103,005,2025-05-17_15h50.12.302,project,2024.2.4,None,2025-05-17 15h50.24.416763 +0700,
5,3,faces/unknown/unknown_122.jpg,unknown,2,2,0,None,,,0,2,2,2,8.389425699999265,,,,,,,,,8.385602899999867,9.368640299999242,10.216715799999292,10.173886599999605,10.213399899999786,10.216715799999292,10.216715799999292,0.03951330000018061,1.0279525999994803,12.177044500000193,None,,,,,,,,,,103,005,2025-05-17_15h50.12.302,project,2024.2.4,None,2025-05-17 15h50.24.416763 +0700,
5,4,faces/unknown/unknown_155.jpg,unknown,3,3,0,None,,,0,3,3,3,12.18087480000031,,,,,,,,,12.177286599999206,13.16414629999963,13.810605700000451,13.769083299999693,13.806886399999712,13.810605700000451,13.810605700000451,0.03780870000082359,1.0245360999997501,15.77268179999919,None,,,,,,,,,,103,005,2025-05-17_15h50.12.302,project,2024.2.4,None,2025-05-17 15h50.24.416763 +0700,
5,5,faces/known/known_106.jpg,known,4,4,0,space,0.5029535999983636,0.16803770000115037,0,4,4,4,15.776784800000314,,,,,,,,,15.772818299999926,16.755826399999933,17.56769870000062,17.552408300000025,17.564308799999708,17.56769870000062,17.56769870000062,0.011916400000700378,0.9993769000011525,19.552500100000543,space,0.5029535999983636,0.16803770000115037,19.555814600000303,19.555814600000303,,,,,,103,005,2025-05-17_15h50.12.302,project,2024.2.4,None,2025-05-17 15h50.24.416763 +0700,
5,6,faces/unknown/unknown_16.jpg,unknown,5,5,0,None,,,0,5,5,5,19.555814600000303,,,,,,,,,19.55270709999968,20.539265800000067,21.299696800000675,21.261108000000604,21.29636699999901,21.299696800000675,21.299696800000675,0.03526810000039404,1.0241389999991952,23.26443459999973,None,,,,,,,,,,103,005,2025-05-17_15h50.12.302,project,2024.2.4,None,2025-05-17 15h50.24.416763 +0700,
5,7,faces/unknown/unknown_214.jpg,unknown,6,6,0,None,,,0,6,6,6,23.268482699999367,,,,,,,,,23.2646850000001,24.24768579999909,25.08393149999938,25.040266699999847,25.08198470000025,25.08393149999938,25.08393149999938,0.041723000000274624,1.0281382000011945,27.043731100000514,None,,,,,,,,,,103,005,2025-05-17_15h50.12.302,project,2024.2.4,None,2025-05-17 15h50.24.416763 +0700,
5,8,faces/unknown/unknown_14.jpg,unknown,7,7,0,None,,,0,7,7,7,27.047527999999147,,,,,,,,,27.043982799999867,28.03077200000007,29.01507110000057,28.97354489999998,29.011493699999846,29.01507110000057,29.01507110000057,0.0379573000009259,1.0242367000009835,30.976924999999028,None,,,,,,,,,,103,005,2025-05-17_15h50.12.302,project,2024.2.4,None,2025-05-17 15h50.24.416763 +0700,
5,9,faces/known/known_38.jpg,known,8,8,0,None,,,0,8,8,8,30.980718000000707,,,,,,,,,30.977079199999935,31.960338099999717,32.880398699999205,32.83166870000059,32.876785200000086,32.880398699999205,32.880398699999205,0.04512269999941054,1.0326193000000785,34.83549649999986,None,,,,,,,,,,103,005,2025-05-17_15h50.12.302,project,2024.2.4,None,2025-05-17 15h50.24.416763 +0700,
5,10,faces/unknown/unknown_76.jpg,unknown,9,9,0,None,,,0,9,9,9,34.839399599999524,,,,,,,,,34.835723000000144,35.818652800000564,36.83582910000041,36.7945923999996,36.83262819999982,36.83582910000041,36.83582910000041,0.03803879999941273,1.023848299999372,38.7978106999999,None,,,,,,,,,,103,005,2025-05-17_15h50.12.302,project,2024.2.4,None,2025-05-17 15h50.24.416763 +0700,
5,11,faces/unknown/unknown_111.jpg,unknown,10,10,0,None,,,0,10,10,10,38.8017220999991,,,,,,,,,38.79802869999912,39.780861400000504,40.70753429999968,40.66244360000019,40.704047100000025,40.70753429999968,40.70753429999968,0.04161300000123447,1.0311796000005415,42.6644469999992,None,,,,,,,,,,103,005,2025-05-17_15h50.12.302,project,2024.2.4,None,2025-05-17 15h50.24.416763 +0700,
5,12,faces/known/known_86.jpg,known,11,11,0,space,0.8989020999997592,0.16835589999936929,0,11,11,11,42.668449700000565,,,,,,,,,42.66464889999952,43.65161679999983,44.3954190000004,44.3771469000003,44.39184960000057,44.3954190000004,44.3954190000004,0.01472239999930025,1.0037826000007044,46.380891200000406,space,0.8989020999997592,0.16835589999936929,,,,,,,,103,005,2025-05-17_15h50.12.302,project,2024.2.4,None,2025-05-17 15h50.24.416763 +0700,
5,13,faces/known/known_141.jpg,known,12,12,0,None,,,0,12,12,12,46.38496699999996,,,,,,,,,46.381112299999586,47.36447000000044,48.122612900000604,48.069012199999634,48.118871700000454,48.122612900000604,48.122612900000604,0.04987070000061067,1.0369809999992867,50.072669099999985,None,,,,,,,,,,103,005,2025-05-17_15h50.12.302,project,2024.2.4,None,2025-05-17 15h50.24.416763 +0700,
5,14,faces/unknown/unknown_217.jpg,unknown,13,13,0,None,,,0,13,13,13,50.07686289999947,,,,,,,,,50.07292719999896,51.056064099999276,52.01932040000065,51.977681700000176,52.01583819999905,52.01932040000065,52.01932040000065,0.038142199999128934,1.0240976999994018,53.98096009999972,None,,,,,,,,,,103,005,2025-05-17_15h50.12.302,project,2024.2.4,None,2025-05-17 15h50.24.416763 +0700,
5,15,faces/known/known_139.jpg,known,14,14,0,space,1.0231542000001355,0.20752549999997427,0,14,14,14,53.98502940000071,,,,,,,,,53.98115519999919,54.96417289999954,55.639404399998966,55.59865030000037,55.63747329999933,55.639404399998966,55.639404399998966,0.03883250000035332,1.0238604999995005,57.6016383999995,space,1.0231542000001355,0.20752549999997427,,,,,,,,103,005,2025-05-17_15h50.12.302,project,2024.2.4,None,2025-05-17 15h50.24.416763 +0700,
5,16,faces/known/known_134.jpg,known,15,15,0,space,0.6094438000000082,0.19195440000112285,0,15,15,15,57.60567450000053,,,,,,,,,57.60175849999905,58.58529889999954,59.404667799999515,59.38198639999973,59.40119190000041,59.404667799999515,59.404667799999515,0.019209800000680843,1.0073804999992717,61.38526230000025,space,0.6094438000000082,0.19195440000112285,,,,,,,,103,005,2025-05-17_15h50.12.302,project,2024.2.4,None,2025-05-17 15h50.24.416763 +0700,
5,17,faces/unknown/unknown_93.jpg,unknown,16,16,0,None,,,0,16,16,16,61.38914339999974,,,,,,,,,61.38545549999981,62.368699200000265,63.13242109999919,63.09040289999939,63.128819499999736,63.13242109999919,63.13242109999919,0.03842099999928905,1.0280098999992333,65.09359009999935,None,,,,,,,,,,103,005,2025-05-17_15h50.12.302,project,2024.2.4,None,2025-05-17 15h50.24.416763 +0700,
5,18,faces/known/known_55.jpg,known,17,17,0,space,0.5628341999999975,0.20755869999993593,0,17,17,17,65.09765030000017,,,,,,,,,65.09380579999925,66.07679839999946,66.75588249999964,66.73648829999911,66.75250159999996,66.75588249999964,66.75588249999964,0.016016199999285163,1.0029522000004363,68.73959560000003,space,0.5628341999999975,0.20755869999993593,,,,,,,,103,005,2025-05-17_15h50.12.302,project,2024.2.4,None,2025-05-17 15h50.24.416763 +0700,
5,19,faces/known/known_37.jpg,known,18,18,0,space,0.7563874000006763,0.16857300000083342,0,18,18,18,68.74352709999948,,,,,,,,,68.73985189999985,69.72696580000047,70.55369670000073,70.51122380000015,70.55023660000006,70.55369670000073,70.55369670000073,0.03902569999991101,1.0281460999995033,72.51419680000072,space,0.7563874000006763,0.16857300000083342,,,,,,,,103,005,2025-05-17_15h50.12.302,project,2024.2.4,None,2025-05-17 15h50.24.416763 +0700,
5,20,faces/known/known_24.jpg,known,19,19,0,space,1.01159700000062,0.18337980000069365,0,19,19,19,72.5182676000004,,,,,,,,,72.51433539999925,73.4975742000006,74.16318619999947,74.11947449999934,74.15963999999985,74.16318619999947,74.16318619999947,0.04018290000021807,1.0279802000004565,76.12273330000062,space,1.01159700000062,0.18337980000069365,,,,,,,,103,005,2025-05-17_15h50.12.302,project,2024.2.4,None,2025-05-17 15h50.24.416763 +0700,
5,21,faces/unknown/unknown_290.jpg,unknown,20,20,0,None,,,0,20,20,20,76.12695530000019,,,,,,,,,76.12293660000068,77.10618450000038,78.07354990000022,78.0321313000004,78.0698453999994,78.07354990000022,78.07354990000022,0.03772630000094068,1.0281386000006023,80.03542179999931,None,,,,,,,,,,103,005,2025-05-17_15h50.12.302,project,2024.2.4,None,2025-05-17 15h50.24.416763 +0700,
5,22,faces/known/known_122.jpg,known,21,21,0,space,0.5473079000003054,0.17533879999973578,0,21,21,21,80.03923759999998,,,,,,,,,80.03571509999892,81.02259509999931,81.8594637999995,81.84009340000011,81.8561066000002,81.8594637999995,81.8594637999995,0.016019900000173948,1.0036564000001817,83.84345609999946,space,0.5473079000003054,0.17533879999973578,,,,,,,,103,005,2025-05-17_15h50.12.302,project,2024.2.4,None,2025-05-17 15h50.24.416763 +0700,
5,23,faces/unknown/unknown_125.jpg,unknown,22,22,0,None,,,0,22,22,22,83.84752610000032,,,,,,,,,83.84368580000046,84.82669329999953,85.80058119999921,85.75268999999935,85.7987092000003,85.80058119999921,85.80058119999921,0.04602519999934884,1.032445099999677,87.75571859999945,None,,,,,,,,,,103,005,2025-05-17_15h50.12.302,project,2024.2.4,None,2025-05-17 15h50.24.416763 +0700,
5,24,faces/known/known_115.jpg,known,23,23,0,space,0.6393728000002739,0.16800569999941217,0,23,23,23,87.75984679999965,,,,,,,,,87.7558339999996,88.73968719999903,89.43053469999904,89.41095320000022,89.42690530000073,89.43053469999904,89.43053469999904,0.015965599999617552,1.003382099999726,91.41407350000009,space,0.6393728000002739,0.16800569999941217,,,,,,,,103,005,2025-05-17_15h50.12.302,project,2024.2.4,None,2025-05-17 15h50.24.416763 +0700,
5,25,faces/unknown/unknown_258.jpg,unknown,24,24,0,None,,,0,24,24,24,91.41821359999994,,,,,,,,,91.4142981999994,92.39769960000012,93.15540359999977,93.11496869999974,93.15189719999944,93.15540359999977,93.15540359999977,0.03694560000076308,1.0243392000011227,95.11848289999944,None,,,,,,,,,,103,005,2025-05-17_15h50.12.302,project,2024.2.4,None,2025-05-17 15h50.24.416763 +0700,
5,26,faces/known/known_118.jpg,known,25,25,0,space,0.6529282000010426,0.17667579999942973,0,25,25,25,95.12247829999978,,,,,,,,,95.1186949999992,96.10173410000061,96.75293059999967,96.73169289999896,96.74952329999905,96.75293059999967,96.75293059999967,0.01784839999891119,1.0075317999999243,98.73519540000052,space,0.6529282000010426,0.17667579999942973,,,,,,,,103,005,2025-05-17_15h50.12.302,project,2024.2.4,None,2025-05-17 15h50.24.416763 +0700,
5,27,faces/unknown/unknown_206.jpg,unknown,26,26,0,None,,,0,26,26,26,98.739163799999,,,,,,,,,98.73543359999894,99.71848089999912,100.5989540999999,100.55694640000002,100.59559889999946,100.5989540999999,100.5989540999999,0.03862499999922875,1.0280874999989464,102.55994139999893,None,,,,,,,,,,103,005,2025-05-17_15h50.12.302,project,2024.2.4,None,2025-05-17 15h50.24.416763 +0700,
5,28,faces/known/known_119.jpg,known,27,27,0,space,0.8787085999992996,0.1685445000002801,0,27,27,27,102.56402650000018,,,,,,,,,102.56005650000043,103.54383609999968,104.3275661000007,104.30710559999898,104.32390549999946,104.3275661000007,104.3275661000007,0.016800700001113,1.0033392000004824,106.3099671,space,0.8787085999992996,0.1685445000002801,,,,,,,,103,005,2025-05-17_15h50.12.302,project,2024.2.4,None,2025-05-17 15h50.24.416763 +0700,
5,29,faces/known/known_113.jpg,known,28,28,0,space,0.5519797999986622,0.21530810000149359,0,28,28,28,106.31406799999968,,,,,,,,,106.31009500000073,107.29764109999996,108.07065700000021,108.04824310000004,108.06711630000063,108.07065700000021,108.07065700000021,0.018885299999965355,1.0077802000014344,110.05189819999941,space,0.5519797999986622,0.21530810000149359,,,,,,,,103,005,2025-05-17_15h50.12.302,project,2024.2.4,None,2025-05-17 15h50.24.416763 +0700,
5,30,faces/unknown/unknown_63.jpg,unknown,29,29,0,None,,,0,29,29,29,110.05598479999935,,,,,,,,,110.05212100000062,111.03514750000068,111.74626270000044,111.70298720000028,111.74277919999986,111.74626270000044,111.74626270000044,0.039794600001187064,1.0280133000014757,113.70617200000015,None,,,,,,,,,,103,005,2025-05-17_15h50.12.302,project,2024.2.4,None,2025-05-17 15h50.24.416763 +0700,
5,31,faces/unknown/unknown_207.jpg,unknown,30,30,0,None,,,0,30,30,30,113.71016749999944,,,,,,,,,113.70643569999993,114.6935341999997,115.58927539999968,115.5488977999994,115.58745129999988,115.58927539999968,115.58927539999968,0.038538599999810685,1.0237669999987702,117.55185340000025,None,,,,,,,,,,103,005,2025-05-17_15h50.12.302,project,2024.2.4,None,2025-05-17 15h50.24.416763 +0700,
5,32,faces/known/known_130.jpg,known,31,31,0,space,0.5712571999993088,0.18354490000092483,0,31,31,31,117.55597429999943,,,,,,,,,117.55204419999973,118.53949199999988,119.24327450000055,119.22363079999923,119.23984890000065,119.24327450000055,119.24327450000055,0.01622780000070634,1.003120299999864,121.22679219999918,space,0.5712571999993088,0.18354490000092483,,,,,,,,103,005,2025-05-17_15h50.12.302,project,2024.2.4,None,2025-05-17 15h50.24.416763 +0700,
5,33,faces/unknown/unknown_51.jpg,unknown,32,32,0,None,,,0,32,32,32,121.23069570000007,,,,,,,,,121.22692710000047,122.21028370000022,123.07265050000024,123.03204820000065,123.06918079999923,123.07265050000024,123.07265050000024,0.03713600000082806,1.0239829000001919,125.03528329999972,None,,,,,,,,,,103,005,2025-05-17_15h50.12.302,project,2024.2.4,None,2025-05-17 15h50.24.416763 +0700,
5,34,faces/known/known_52.jpg,known,33,33,0,space,0.538832000000184,0.18417589999990014,0,33,33,33,125.03932170000007,,,,,,,,,125.0355182000003,126.02272889999949,127.01094199999898,126.9909332999996,127.00749279999945,127.01094199999898,127.01094199999898,0.01655630000095698,1.0025062000004255,128.99342799999977,space,0.538832000000184,0.18417589999990014,,,,,,,,103,005,2025-05-17_15h50.12.302,project,2024.2.4,None,2025-05-17 15h50.24.416763 +0700,
5,35,faces/known/known_133.jpg,known,34,34,0,space,0.5437961000006908,0.19979919999968843,0,34,34,34,128.99745669999902,,,,,,,,,128.99372070000027,129.9811334999995,130.67038309999953,130.6527021999991,130.66695040000013,130.67038309999953,130.67038309999953,0.014254099998652237,1.003166099999362,132.66024610000022,space,0.5437961000006908,0.19979919999968843,,,,,,,,103,005,2025-05-17_15h50.12.302,project,2024.2.4,None,2025-05-17 15h50.24.416763 +0700,
5,36,faces/unknown/unknown_78.jpg,unknown,35,35,0,None,,,0,35,35,35,132.66185779999978,,,,,,,,,132.66047310000067,133.63923129999966,134.36715820000063,134.32751599999938,134.36360330000025,134.36715820000063,134.36715820000063,0.03610150000167778,1.0241970000006404,136.33080390000032,None,,,,,,,,,,103,005,2025-05-17_15h50.12.302,project,2024.2.4,None,2025-05-17 15h50.24.416763 +0700,
5,37,faces/known/known_50.jpg,known,36,36,0,space,0.6833229999992909,0.16732220000085363,0,36,36,36,136.33484599999974,,,,,,,,,136.3309860999998,137.31441350000023,138.0116909999997,137.98597530000006,138.00743279999915,138.0116909999997,138.0116909999997,0.0214828000007401,1.0116567999994004,139.98924679999982,space,0.6833229999992909,0.16732220000085363,,,,,,,,103,005,2025-05-17_15h50.12.302,project,2024.2.4,None,2025-05-17 15h50.24.416763 +0700,
5,38,faces/known/known_129.jpg,known,37,37,0,None,,,0,37,37,37,139.99329240000043,,,,,,,,,139.9894879000003,140.97683289999986,141.86940610000056,141.8239295000003,141.8660034000004,141.86940610000056,141.86940610000056,0.04207170000154292,1.0320135000001756,143.82694470000024,None,,,,,,,,,,103,005,2025-05-17_15h50.12.302,project,2024.2.4,None,2025-05-17 15h50.24.416763 +0700,
5,39,faces/unknown/unknown_52.jpg,unknown,38,38,0,None,,,0,38,38,38,143.83084710000003,,,,,,,,,143.82717889999913,144.81413640000028,145.7720207000002,145.73197029999938,145.77017370000067,145.7720207000002,145.7720207000002,0.03820869999981369,1.023944599999595,147.73499079999965,None,,,,,,,,,,103,005,2025-05-17_15h50.12.302,project,2024.2.4,None,2025-05-17 15h50.24.416763 +0700,
5,40,faces/known/known_71.jpg,known,39,39,0,space,0.5760566999997536,0.18271700000150304,0,39,39,39,147.7390937,,,,,,,,,147.7351424999997,148.72230859999945,149.4230931000002,149.40247140000065,149.41950499999984,149.4230931000002,149.4230931000002,0.017043899999407586,1.003349900000103,151.40587389999928,space,0.5760566999997536,0.18271700000150304,,,,,,,,103,005,2025-05-17_15h50.12.302,project,2024.2.4,None,2025-05-17 15h50.24.416763 +0700,
5,41,faces/known/known_56.jpg,known,40,40,0,space,0.9569267000006221,0.21555899999839312,0,40,40,40,151.40996450000057,,,,,,,,,151.40610689999994,152.38963460000014,153.2492375999991,153.23158820000026,153.2457491999994,153.2492375999991,153.2492375999991,0.014174699999784934,1.0034414999990986,155.23511770000005,space,0.9569267000006221,0.21555899999839312,,,,,,,,103,005,2025-05-17_15h50.12.302,project,2024.2.4,None,2025-05-17 15h50.24.416763 +0700,
5,42,faces/unknown/unknown_203.jpg,unknown,41,41,0,None,,,0,41,41,41,155.23912399999972,,,,,,,,,155.23533560000033,156.2183643999997,157.13937889999943,157.09838879999916,157.13607579999916,157.13937889999943,157.13937889999943,0.03762830000050599,1.0240599000007933,159.10194159999992,None,,,,,,,,,,103,005,2025-05-17_15h50.12.302,project,2024.2.4,None,2025-05-17 15h50.24.416763 +0700,
5,43,faces/known/known_59.jpg,known,42,42,0,space,0.4718107999997301,0.19236579999960668,0,42,42,42,159.10579719999987,,,,,,,,,159.10231209999984,160.0849904000006,160.87758910000048,160.85670129999926,160.8741159000001,160.87758910000048,160.87758910000048,0.017428700000891695,1.0035655000010593,162.8602934999999,space,0.4718107999997301,0.19236579999960668,,,,,,,,103,005,2025-05-17_15h50.12.302,project,2024.2.4,None,2025-05-17 15h50.24.416763 +0700,
5,44,faces/unknown/unknown_45.jpg,unknown,43,43,0,None,,,0,43,43,43,162.8642720000007,,,,,,,,,162.86050860000068,163.8432902000004,164.87183600000026,164.82757479999964,164.86823679999907,164.87183600000026,164.87183600000026,0.04066659999989497,1.028142500001195,166.83067519999895,None,,,,,,,,,,103,005,2025-05-17_15h50.12.302,project,2024.2.4,None,2025-05-17 15h50.24.416763 +0700,
5,45,faces/unknown/unknown_130.jpg,unknown,44,44,0,space,0.844921500000055,0.17625609999959124,0,44,44,44,166.83471719999943,,,,,,,,,166.83079159999943,167.8184612999994,168.57705600000008,168.53185200000007,168.57345309999982,168.57705600000008,168.57705600000008,0.0416006000014022,1.0283066000010876,170.53507489999902,space,0.844921500000055,0.17625609999959124,,,,,,,,103,005,2025-05-17_15h50.12.302,project,2024.2.4,None,2025-05-17 15h50.24.416763 +0700,
5,46,faces/known/known_65.jpg,known,45,45,0,space,0.6417270000001736,0.19898470000043744,0,45,45,45,170.53923779999968,,,,,,,,,170.53532189999896,171.52255680000053,172.27685120000024,172.2564136000001,172.27328859999943,172.27685120000024,172.27685120000024,0.016862400001627975,1.0035539000000426,174.2600652000001,space,0.6417270000001736,0.19898470000043744,,,,,,,,103,005,2025-05-17_15h50.12.302,project,2024.2.4,None,2025-05-17 15h50.24.416763 +0700,
5,47,faces/unknown/unknown_49.jpg,unknown,46,46,0,None,,,0,46,46,46,174.2641564000005,,,,,,,,,174.26030159999937,175.2434630000007,176.07671280000068,176.03579379999974,176.074745599999,176.07671280000068,176.07671280000068,0.0389632000005804,1.024340400001165,178.0392412000001,None,,,,,,,,,,103,005,2025-05-17_15h50.12.302,project,2024.2.4,None,2025-05-17 15h50.24.416763 +0700,
5,48,faces/unknown/unknown_2.jpg,unknown,47,47,0,None,,,0,47,47,47,178.0432363,,,,,,,,,178.03943749999962,179.02297980000003,179.90722040000037,179.8650061999997,179.90367220000007,179.90722040000037,179.90722040000037,0.038683500000843196,1.0281027000000904,181.86849930000062,None,,,,,,,,,,103,005,2025-05-17_15h50.12.302,project,2024.2.4,None,2025-05-17 15h50.24.416763 +0700,
5,49,faces/known/known_36.jpg,known,48,48,0,space,0.8810248999998294,0.15199220000067726,0,48,48,48,181.87242909999986,,,,,,,,,181.86870909999925,182.85184019999906,183.8847676000005,183.83187349999935,183.88074039999992,183.8847676000005,183.8847676000005,0.0488839999998163,1.0363883999998507,185.8350434999993,space,0.8810248999998294,0.15199220000067726,,,,,,,,103,005,2025-05-17_15h50.12.302,project,2024.2.4,None,2025-05-17 15h50.24.416763 +0700,
5,50,faces/known/known_78.jpg,known,49,49,0,space,0.9275699999998324,0.13636009999936505,0,49,49,49,185.8390228999997,,,,,,,,,185.83528040000056,186.81968000000052,187.5660115999999,187.54886950000036,187.56275409999944,187.5660115999999,187.5660115999999,0.01389259999996284,1.002964900000734,189.5518004000005,space,0.9275699999998324,0.13636009999936505,,,,,,,,103,005,2025-05-17_15h50.12.302,project,2024.2.4,None,2025-05-17 15h50.24.416763 +0700,
5,51,faces/known/known_74.jpg,known,50,50,0,space,1.1168240000006335,0.1441223000001628,0,50,50,50,189.55575130000034,,,,,,,,,189.5520421000001,190.53907660000004,191.27250739999909,191.25271040000007,191.2688507999992,191.27250739999909,191.27250739999909,0.016146400001161965,1.0030583000007027,193.2558678000005,space,1.1168240000006335,0.1441223000001628,,,,,,,,103,005,2025-05-17_15h50.12.302,project,2024.2.4,None,2025-05-17 15h50.24.416763 +0700,
5,52,faces/unknown/unknown_209.jpg,unknown,51,51,0,None,,,0,51,51,51,193.2601168000001,,,,,,,,,193.25609160000022,194.24337279999963,195.1669724000003,195.1189448999994,195.16334730000017,195.1669724000003,195.1669724000003,0.04441039999983332,1.0324872999990475,197.12255469999945,None,,,,,,,,,,103,005,2025-05-17_15h50.12.302,project,2024.2.4,None,2025-05-17 15h50.24.416763 +0700,
5,53,faces/known/known_121.jpg,known,52,52,0,space,0.6040280000015628,0.1842646999994031,0,52,52,52,197.12656289999904,,,,,,,,,197.12268659999972,198.10584489999928,199.0092052,198.99023859999943,199.00591739999982,199.0092052,199.0092052,0.0156805999995413,1.0032278999988193,200.99357520000012,space,0.6040280000015628,0.1842646999994031,,,,,,,,103,005,2025-05-17_15h50.12.302,project,2024.2.4,None,2025-05-17 15h50.24.416763 +0700,
5,54,faces/unknown/unknown_178.jpg,unknown,53,53,0,None,,,0,53,53,53,200.99737760000062,,,,,,,,,200.9938000000002,201.98076749999927,202.93425500000012,202.89429819999896,202.93093799999951,202.93425500000012,202.93425500000012,0.036646500000642845,1.0239473999990878,204.8976330000005,None,,,,,,,,,,103,005,2025-05-17_15h50.12.302,project,2024.2.4,None,2025-05-17 15h50.24.416763 +0700,
5,55,faces/known/known_1.jpg,known,54,54,0,None,,,0,54,54,54,204.90167569999903,,,,,,,,,204.8978444000004,205.88080780000018,206.7482942000006,206.71116359999905,206.74634979999973,206.7482942000006,206.7482942000006,0.035202499999286374,1.0195951999994577,208.7141092999991,None,,,,,,,,,,103,005,2025-05-17_15h50.12.302,project,2024.2.4,None,2025-05-17 15h50.24.416763 +0700,
5,56,faces/known/known_149.jpg,known,55,55,0,space,0.7691637999996601,0.2164042000003974,0,55,55,55,208.71821090000049,,,,,,,,,208.71432409999943,209.70146279999972,210.5639143999997,210.54801249999946,210.56046409999908,210.5639143999997,210.5639143999997,0.01246530000025814,0.999352099999669,212.54770739999913,space,0.7691637999996601,0.2164042000003974,212.55163059999904,212.55163059999904,,,,,,103,005,2025-05-17_15h50.12.302,project,2024.2.4,None,2025-05-17 15h50.24.416763 +0700,
5,57,faces/unknown/unknown_74.jpg,unknown,56,56,0,None,,,0,56,56,56,212.55163059999904,,,,,,,,,212.54790089999915,213.53498279999985,214.18115600000056,214.13600450000013,214.17780689999927,214.18115600000056,214.18115600000056,0.04180559999986144,1.0280956999995396,216.1393494999993,None,,,,,,,,,,103,005,2025-05-17_15h50.12.302,project,2024.2.4,None,2025-05-17 15h50.24.416763 +0700,
5,58,faces/unknown/unknown_107.jpg,unknown,57,57,0,None,,,0,57,57,57,216.14353540000047,,,,,,,,,216.13959880000039,217.1266641000002,217.87593070000003,217.83589720000055,217.8726200000001,217.87593070000003,217.87593070000003,0.03673300000082236,1.0244015000007494,219.83927670000048,None,,,,,,,,,,103,005,2025-05-17_15h50.12.302,project,2024.2.4,None,2025-05-17 15h50.24.416763 +0700,
5,59,faces/unknown/unknown_213.jpg,unknown,58,58,0,None,,,0,58,58,58,219.84323679999943,,,,,,,,,219.83952800000043,220.82226099999934,221.77050000000054,221.72807300000022,221.76708080000026,221.77050000000054,221.77050000000054,0.039008399999147514,1.0276878999993642,223.7308792999993,None,,,,,,,,,,103,005,2025-05-17_15h50.12.302,project,2024.2.4,None,2025-05-17 15h50.24.416763 +0700,
5,60,faces/unknown/unknown_98.jpg,unknown,59,59,0,None,,,0,59,59,59,223.7348474999999,,,,,,,,,223.73106030000054,224.71824679999918,225.55453339999985,225.5107437000006,225.55073789999915,225.55453339999985,225.55453339999985,0.04000300000006973,1.0285053999996308,227.51441109999905,None,,,,,,,,,,103,005,2025-05-17_15h50.12.302,project,2024.2.4,None,2025-05-17 15h50.24.416763 +0700,
,,,,,,,,,,,,,,,,,,,,,,,,,,,,,,,,,,,,,,227.51454720000038,227.5181625999994,228.61984999999913,228.50236290000066,,103,005,2025-05-17_15h50.12.302,project,2024.2.4,None,2025-05-17 15h50.24.416763 +0700,
,,,,,,,,,,,,,,,,,,,,,,,,,,,,,,,,,,,,,,,,,,"{1, 5, 12, 15, 16, 18, 19, 20, 22, 24, 26, 28, 29, 32, 34, 35, 37, 40, 41, 43, 45, 46, 49, 50, 51, 53, 56}",,,,,,,,
